time,seconds_elapsed,z,y,x
1717002214786155800,0.04815576171875,0,0,0
1717002214795821300,0.0578212890625,-0.057547569274902344,0.03561043739318848,-0.03406524658203125
1717002214805486600,0.067486572265625,-0.11450767517089844,0.1017155647277832,0.013373732566833496
1717002214815152000,0.077152099609375,-0.21703243255615234,0.1743454933166504,0.10174524784088135
1717002214824817700,0.086817626953125,-0.2981576919555664,0.2068638801574707,0.18220067024230957
1717002214834483000,0.09648291015625,-0.3018798828125,0.2606322765350342,0.206512451171875
1717002214844148500,0.1061484375,-0.21439266204833984,0.2631361484527588,0.1921316385269165
1717002214853814000,0.11581396484375,-0.17073822021484375,0.24353671073913574,0.1510026454925537
1717002214863479300,0.125479248046875,-0.07621002197265625,0.21034526824951172,0.08254420757293701
1717002214873144800,0.135144775390625,0.04768562316894531,0.14564251899719238,0.02770233154296875
1717002214882810400,0.144810302734375,0.14226245880126953,0.1401827335357666,-0.0371779203414917
1717002214892475600,0.1544755859375,0.46433353424072266,0.10397171974182129,-0.07906925678253174
1717002214902141200,0.16414111328125,0.37871360778808594,0.12289023399353027,-0.1493680477142334
1717002214911806700,0.173806640625,0.21982860565185547,0.09443211555480957,-0.2098684310913086
1717002214921472300,0.18347216796875,0.20452404022216797,-0.021158695220947266,-0.14595341682434082
1717002214931137500,0.193137451171875,0.1941080093383789,-0.11457467079162598,-0.10850250720977783
1717002214940803000,0.202802978515625,0.20221233367919922,-0.13109445571899414,-0.08100605010986328
1717002214950468600,0.212468505859375,0.32067012786865234,-0.033560991287231445,0.087921142578125
1717002214960134000,0.2221337890625,0.25658702850341797,0.015159964561462402,0.23724889755249023
1717002214969799400,0.23179931640625,0.13960838317871094,-0.02577054500579834,0.2752664089202881
1717002214979465000,0.24146484375,-0.09165096282958984,-0.08712303638458252,0.2971184253692627
1717002214989130200,0.251130126953125,-0.36388683319091797,-0.1355522871017456,0.23737096786499023
1717002214998795800,0.260795654296875,-0.6005764007568359,-0.17984986305236816,0.09462451934814453
1717002215008461300,0.27046142578125,-0.7765722274780273,-0.17111074924468994,-0.05813395977020264
1717002215018126600,0.280126708984375,-0.8835372924804688,-0.13595223426818848,-0.12102818489074707
1717002215027792100,0.289792236328125,-0.9224872589111328,-0.03878581523895264,-0.22319364547729492
1717002215037457700,0.299457763671875,-0.836421012878418,0.010399937629699707,-0.2601994276046753
1717002215047123000,0.309123046875,-0.6665372848510742,-0.007911920547485352,-0.2602802515029907
1717002215056788500,0.31878857421875,-0.507756233215332,-0.05357468128204346,-0.22124624252319336
1717002215066454000,0.3284541015625,-0.40573596954345703,-0.12103688716888428,-0.13143324851989746
1717002215076119300,0.338119384765625,-0.26346874237060547,-0.22824358940124512,-0.02625143527984619
1717002215085784800,0.347784912109375,-0.14239978790283203,-0.3191272020339966,0.09500682353973389
1717002215095450400,0.357450439453125,-0.011498451232910156,-0.38966643810272217,0.20701420307159424
1717002215105115600,0.36711572265625,0.04333209991455078,-0.3958866596221924,0.289229154586792
1717002215114781200,0.37678125,0.03620624542236328,-0.3334794044494629,0.32408106327056885
1717002215124446700,0.38644677734375,-0.012414932250976562,-0.25312304496765137,0.3096959590911865
1717002215134112300,0.3961123046875,-0.10614490509033203,-0.21777451038360596,0.31519925594329834
1717002215143777500,0.405777587890625,-0.2695426940917969,-0.23917615413665771,0.36420106887817383
1717002215153443000,0.415443115234375,-0.35410499572753906,-0.2680647373199463,0.46625494956970215
1717002215163108600,0.425108642578125,-0.3269224166870117,-0.39040637016296387,0.6136245727539062
1717002215172774000,0.43477392578125,-0.15829181671142578,-0.5167008638381958,0.7336058616638184
1717002215182439400,0.444439453125,-0.1088266372680664,-0.5320169925689697,0.7948209047317505
1717002215192105000,0.45410498046875,-0.11471271514892578,-0.4465092420578003,0.7528043985366821
1717002215201770200,0.463770263671875,-0.14837932586669922,-0.3455088138580322,0.6427152156829834
1717002215211435800,0.473435791015625,-0.20624351501464844,-0.2640033960342407,0.5536962747573853
1717002215221101300,0.483101318359375,-0.3368234634399414,-0.19604599475860596,0.44231510162353516
1717002215230766600,0.4927666015625,-0.4056549072265625,-0.1629270315170288,0.3390641212463379
1717002215240432000,0.50243212890625,-0.2950716018676758,-0.14983785152435303,0.29568588733673096
1717002215250097700,0.51209765625,0.0503387451171875,-0.2121105194091797,0.4130138158798218
1717002215259763000,0.521762939453125,0.43813133239746094,-0.24044263362884521,0.6166700124740601
1717002215269428500,0.531428466796875,0.6869964599609375,-0.09516942501068115,0.7017617225646973
1717002215279094000,0.541093994140625,0.8949441909790039,0.08529114723205566,0.6316559314727783
1717002215288759300,0.55075927734375,0.9940834045410156,-0.48812806606292725,0.992182731628418
1717002215298424800,0.5604248046875,0.8229904174804688,-0.6759048700332642,1.1251568794250488
1717002215308090400,0.57009033203125,0.7251453399658203,-0.38399946689605713,0.7309951782226562
1717002215317755600,0.579755615234375,0.20633602142333984,-0.33856749534606934,0.5929710865020752
1717002215327421200,0.589421142578125,-0.1849231719970703,-0.5606383085250854,0.3862597942352295
1717002215337086700,0.599086669921875,-0.31914329528808594,-0.7588148713111877,-0.02796792984008789
1717002215346752000,0.608751953125,-0.33829212188720703,-0.610612154006958,-0.28001976013183594
1717002215356417500,0.61841748046875,-0.3380746841430664,-0.37211090326309204,-0.32140302658081055
1717002215366083000,0.6280830078125,-0.25330162048339844,-0.3759812116622925,-0.03928518295288086
1717002215375748400,0.637748291015625,-0.37256431579589844,-0.5669690370559692,0.45541834831237793
1717002215385414000,0.647413818359375,-0.7014751434326172,-0.9350179433822632,0.8076324462890625
1717002215395079400,0.657079345703125,-0.88787841796875,-1.5006895065307617,0.9588165283203125
1717002215404744700,0.66674462890625,-1.2526946067810059,-1.8688619136810303,0.796353816986084
1717002215414410200,0.67641015625,-1.168971061706543,-1.9556522369384766,1.2151758670806885
1717002215424075800,0.68607568359375,-0.40950679779052734,-2.2089920043945312,2.2793807983398438
1717002215433741300,0.6957412109375,-0.17978858947753906,-2.676744222640991,2.731748580932617
1717002215443406600,0.705406494140625,-0.5327663421630859,-2.6012096405029297,2.13446044921875
1717002215453072100,0.715072021484375,-0.31967830657958984,-1.358168125152588,2.3274059295654297
1717002215462737700,0.724737548828125,-0.6544065475463867,-0.9265885353088379,1.2871828079223633
1717002215472403000,0.73440283203125,-1.448862075805664,-0.6007264852523804,0.24777889251708984
1717002215482068500,0.744068359375,-1.810859203338623,-0.5667439103126526,-0.5844478607177734
1717002215491734000,0.753734130859375,-3.0030455589294434,-0.854317307472229,-0.7981843948364258
1717002215501399300,0.7633994140625,-3.5042691230773926,-1.4672937393188477,-1.5290727615356445
1717002215511064800,0.77306494140625,-3.814812421798706,-1.8057228326797485,-1.6821513175964355
1717002215520730400,0.78273046875,-3.7375497817993164,-1.8084450960159302,-2.0290679931640625
1717002215530395600,0.792395751953125,-3.836548089981079,-1.5153430700302124,-2.0000452995300293
1717002215540061200,0.802061279296875,-4.205519676208496,-1.1420944929122925,-1.8523378372192383
1717002215549726700,0.811726806640625,-5.094112873077393,-1.0191991329193115,-1.6259117126464844
1717002215559392000,0.82139208984375,-4.475766181945801,-2.8138363361358643,-1.2197480201721191
1717002215569057500,0.8310576171875,-3.9484376907348633,-4.986854076385498,-0.8162026405334473
1717002215578723000,0.84072314453125,-3.9379825592041016,-6.1403303146362305,-0.47266292572021484
1717002215588388400,0.850388427734375,-3.5904855728149414,-5.934953212738037,-0.6183547973632812
1717002215598054000,0.860053955078125,-2.1135342121124268,-5.08064603805542,-1.2666316032409668
1717002215607719400,0.869719482421875,-0.7233896255493164,-4.50523567199707,-2.094287395477295
1717002215617384700,0.879384765625,-0.34606075286865234,-4.44153356552124,-2.398754596710205
1717002215627050200,0.88905029296875,-0.49127745628356934,-4.665633201599121,-2.222836494445801
1717002215636715800,0.8987158203125,-0.7784709930419922,-4.822455883026123,-2.0102992057800293
1717002215646381000,0.908381103515625,-0.8661448955535889,-4.81599235534668,-1.89719820022583
1717002215656046600,0.918046630859375,-0.49553346633911133,-4.494718074798584,-1.8734827041625977
1717002215665712000,0.927712158203125,-2.511031150817871,-3.915195941925049,-2.2418837547302246
1717002215675377400,0.93737744140625,1.5736067295074463,-3.2589125633239746,-1.1849565505981445
1717002215685043000,0.94704296875,1.4339048862457275,-3.144218683242798,-0.9861812591552734
1717002215694708500,0.95670849609375,2.4017176628112793,-1.9642117023468018,-0.17711639404296875
1717002215704373800,0.966373779296875,3.0290701389312744,-1.049217700958252,0.4298381805419922
1717002215714039300,0.976039306640625,3.667895793914795,0.04347991943359375,1.164717674255371
1717002215723704800,0.985704833984375,4.218204498291016,0.5724754333496094,2.337967872619629
1717002215733370000,0.9953701171875,3.4298503398895264,0.789306640625,4.206225395202637
1717002215743035600,1.00503564453125,3.9195175170898438,1.536073923110962,5.395611763000488
1717002215752701200,1.014701171875,4.4208245277404785,2.27508282661438,6.534589767456055
1717002215762366500,1.024366455078125,4.516035079956055,3.1143407821655273,7.728819847106934
1717002215772032000,1.034031982421875,4.5058817863464355,3.798447608947754,8.46484088897705
1717002215781697500,1.043697509765625,4.468748569488525,4.384627342224121,8.968252182006836
1717002215791362800,1.05336279296875,4.423868656158447,4.836953163146973,9.47690200805664
1717002215801028400,1.0630283203125,4.053285598754883,5.656048774719238,9.566621780395508
1717002215810694000,1.07269384765625,3.163991689682007,6.488806247711182,8.945985794067383
1717002215820359200,1.082359130859375,1.5883649587631226,7.060225486755371,8.600067138671875
1717002215830024700,1.092024658203125,0.36795270442962646,7.45873498916626,8.609365463256836
1717002215839690200,1.101690185546875,-1.3664647340774536,7.821442604064941,9.099922180175781
1717002215849355500,1.11135546875,-3.2484018802642822,8.110224723815918,9.719499588012695
1717002215859021000,1.12102099609375,-4.023998260498047,8.554975509643555,9.572232246398926
1717002215868686600,1.1306865234375,-3.9480998516082764,8.738924980163574,8.731534004211426
1717002215878352000,1.140351806640625,-4.513548851013184,8.499252319335938,7.44189453125
1717002215888017400,1.150017333984375,-4.944829940795898,7.856729507446289,6.211630821228027
1717002215897683000,1.159682861328125,-5.278531074523926,7.37576961517334,4.995090484619141
1717002215907348200,1.16934814453125,-5.736040115356445,6.953272342681885,3.969923973083496
1717002215917013800,1.179013671875,-8.517134666442871,6.309462070465088,2.357236862182617
1717002215926679300,1.18867919921875,-13.06589412689209,4.992465496063232,-0.939302921295166
1717002215936344600,1.198344482421875,-14.086210250854492,2.240577459335327,-4.932138442993164
1717002215946010000,1.208010009765625,-8.578760147094727,0.5308961868286133,-4.375751495361328
1717002215955675600,1.217675537109375,-5.050442218780518,0.22240042686462402,-2.277099132537842
1717002215965341200,1.227341064453125,-4.630392074584961,0.4102294445037842,-0.7664985656738281
1717002215975006500,1.23700634765625,-4.638042449951172,-0.02057790756225586,-0.10654830932617188
1717002215984672000,1.246672119140625,-5.168186187744141,-0.26740431785583496,0.7314996719360352
1717002215994337500,1.256337646484375,-5.0905442237854,-0.48720598220825195,1.6276283264160156
1717002216004002800,1.2660029296875,-3.106417417526245,-0.9279420375823975,1.6255273818969727
1717002216013668400,1.27566845703125,-1.4752779006958008,-1.2435877323150635,0.44223880767822266
1717002216023334000,1.285333984375,1.130375862121582,-0.8689911365509033,-0.8560352325439453
1717002216032999200,1.294999267578125,-0.32564008235931396,-1.5176751613616943,-1.2650856971740723
1717002216042664700,1.304664794921875,-1.5722283124923706,-1.3367600440979004,-1.043375015258789
1717002216052330200,1.314330322265625,-7.177479267120361,0.7443094253540039,1.9825334548950195
1717002216061995500,1.32399560546875,-4.209040641784668,4.3717145919799805,6.492950439453125
1717002216071661000,1.3336611328125,-3.9451420307159424,2.098633289337158,6.575104713439941
1717002216081326600,1.34332666015625,-0.9983689188957214,2.0095765590667725,5.730813980102539
1717002216090991900,1.352991943359375,1.1761113405227661,0.5446071624755859,4.133515357971191
1717002216100657400,1.362657470703125,1.607114315032959,-0.6524186134338379,1.9967632293701172
1717002216110323000,1.372322998046875,0.8293558359146118,-0.8528804779052734,-0.1591653823852539
1717002216119988200,1.38198828125,-0.5146793127059937,0.4505687952041626,-0.31870269775390625
1717002216129653800,1.39165380859375,1.0949629545211792,1.904588222503662,1.0844831466674805
1717002216139319300,1.4013193359375,1.3515980243682861,0.9116912484169006,2.6881723403930664
1717002216148984600,1.410984619140625,2.794456720352173,0.11751389503479004,3.5425844192504883
1717002216158650000,1.420650146484375,2.561737537384033,-1.5915888547897339,3.36075496673584
1717002216168315400,1.4303154296875,0.9932572841644287,-1.4078625440597534,1.5775718688964844
1717002216177981000,1.43998095703125,0.6672965288162231,-1.9110056161880493,-2.386075973510742
1717002216187646500,1.449646484375,0.6913595795631409,-1.352227807044983,-3.2338976860046387
1717002216197312000,1.45931201171875,1.2569111585617065,-1.9581371545791626,-2.8710880279541016
1717002216206977300,1.468977294921875,2.4197497367858887,-3.9555563926696777,-1.4957199096679688
1717002216216642800,1.478642822265625,2.0625338554382324,-3.5667097568511963,-1.4013290405273438
1717002216226308400,1.488308349609375,1.380354881286621,-3.247833251953125,-0.8664331436157227
1717002216235973600,1.4979736328125,0.9415814876556396,-3.2770447731018066,-0.2659616470336914
1717002216245639200,1.50763916015625,1.0678364038467407,-3.1644082069396973,-0.6307563781738281
1717002216255304700,1.5173046875,1.6139274835586548,-3.0144340991973877,-1.0584869384765625
1717002216264970000,1.526969970703125,2.8589611053466797,-2.853546619415283,-1.761216163635254
1717002216274635500,1.536635498046875,3.800896167755127,-3.131946086883545,-2.40633487701416
1717002216284301000,1.546301025390625,3.789891004562378,-3.2072603702545166,-2.960141658782959
1717002216293966300,1.55596630859375,3.2976861000061035,-3.3935232162475586,-2.9717469215393066
1717002216303632000,1.5656318359375,2.338160753250122,-3.673060417175293,-2.6654419898986816
1717002216313297400,1.57529736328125,1.1877413988113403,-3.3740458488464355,-2.406590461730957
1717002216322962700,1.584962646484375,0.4119640588760376,-2.9953250885009766,-2.1272730827331543
1717002216332628200,1.594628173828125,0.2482098937034607,-3.003629207611084,-0.8634414672851562
1717002216342293800,1.604293701171875,0.19143378734588623,-3.5924439430236816,0.005343437194824219
1717002216351959000,1.613958984375,-0.32913148403167725,-2.226300001144409,-1.8572754859924316
1717002216361624600,1.62362451171875,0.14648348093032837,-0.03386640548706055,-4.302037239074707
1717002216371290000,1.6332900390625,1.4293216466903687,2.2482473850250244,-5.744580268859863
1717002216380955400,1.642955322265625,3.1716535091400146,2.463953971862793,-5.458329677581787
1717002216390621000,1.652620849609375,3.6343908309936523,-2.242532730102539,-1.943291187286377
1717002216400286500,1.662286376953125,1.8220469951629639,-3.917971611022949,-0.7735404968261719
1717002216409951700,1.67195166015625,2.312222719192505,-3.6772799491882324,-1.1012797355651855
1717002216419617300,1.6816171875,3.524895668029785,-2.257197856903076,-0.4803457260131836
1717002216429282800,1.69128271484375,6.287338733673096,-2.3424010276794434,1.8723506927490234
1717002216438948000,1.700947998046875,6.0912275314331055,-2.351691722869873,5.006852149963379
1717002216448613600,1.710613525390625,6.688998222351074,-1.3204140663146973,7.985480785369873
1717002216458279200,1.720279052734375,8.142871856689453,-0.09751558303833008,10.13300609588623
1717002216467944400,1.7299443359375,7.366863250732422,1.5290579795837402,9.59681224822998
1717002216477610000,1.73960986328125,0.10174322128295898,3.2173523902893066,7.595936298370361
1717002216487275500,1.749275634765625,-15.386658668518066,3.3136849403381348,3.7243242263793945
1717002216496940800,1.75894091796875,-11.116241455078125,3.5292551517486572,3.8823232650756836
1717002216506606300,1.7686064453125,-5.684845924377441,2.2789669036865234,4.375466346740723
1717002216516271900,1.77827197265625,-2.362060308456421,1.3758773803710938,3.4632396697998047
1717002216525937200,1.787937255859375,-0.5387706756591797,1.2253541946411133,2.079902172088623
1717002216535602700,1.797602783203125,-0.06259298324584961,1.2409749031066895,0.4764089584350586
1717002216545268000,1.80726806640625,-0.26114535331726074,1.651430606842041,-0.9275155067443848
1717002216554933500,1.81693359375,-0.5827329158782959,1.9487767219543457,-2.0861315727233887
1717002216564599000,1.82659912109375,-0.9805965423583984,2.8486342430114746,-3.151681900024414
1717002216574264300,1.836264404296875,-1.0992681980133057,3.3249945640563965,-4.143220901489258
1717002216583929900,1.845929931640625,-0.4195849895477295,3.744716167449951,-5.445650100708008
1717002216593595400,1.855595458984375,1.1244914531707764,3.7609543800354004,-6.970051288604736
1717002216603260700,1.8652607421875,1.7796258926391602,3.5456414222717285,-6.531774044036865
1717002216612926200,1.87492626953125,2.1895225048065186,2.4427456855773926,-5.2807817459106445
1717002216622591700,1.884591796875,1.8967599868774414,1.2949657440185547,-2.798309803009033
1717002216632257000,1.894257080078125,0.558478832244873,-0.09279203414916992,0.09082603454589844
1717002216641922600,1.903922607421875,-1.5606032609939575,-1.664217472076416,2.7328286170959473
1717002216651588000,1.913588134765625,-3.80424165725708,-3.030965805053711,4.790873050689697
1717002216661253400,1.92325341796875,-4.939766883850098,-2.7429795265197754,5.211386680603027
1717002216670919000,1.9329189453125,-4.215439796447754,0.15282106399536133,3.3787055015563965
1717002216680584400,1.94258447265625,-2.2126193046569824,1.7479701042175293,1.9036345481872559
1717002216690249700,1.952249755859375,-0.8088252544403076,0.7594575881958008,1.9978508949279785
1717002216699915300,1.961915283203125,-0.15171122550964355,-1.17252779006958,2.70332670211792
1717002216709580800,1.971580810546875,0.6871378421783447,-2.2180233001708984,3.2530665397644043
1717002216719246000,1.98124609375,1.555999994277954,-2.3073086738586426,3.5480055809020996
1717002216728911600,1.99091162109375,1.9016728401184082,-1.8195104598999023,3.7999844551086426
1717002216738577200,2.0005771484375,1.7311134338378906,-0.9631609916687012,4.055685520172119
1717002216748242400,2.010242431640625,1.5505752563476562,-0.09180259704589844,4.114664077758789
1717002216757908000,2.019907958984375,1.3164691925048828,0.6873054504394531,3.992187976837158
1717002216767573500,2.029573486328125,0.4616234302520752,0.8516077995300293,4.0782976150512695
1717002216777238800,2.03923876953125,-1.4678946733474731,0.9311366081237793,3.8498687744140625
1717002216786904300,2.048904296875,-3.309582471847534,0.8753228187561035,3.261021137237549
1717002216796569900,2.05856982421875,-3.9641880989074707,0.6611542701721191,2.3875246047973633
1717002216806235100,2.068235107421875,-2.9276256561279297,0.14877700805664062,1.7011346817016602
1717002216815900700,2.077900634765625,-1.5441365242004395,-0.35634946823120117,1.2930011749267578
1717002216825566200,2.087566162109375,-0.680219829082489,-0.8979039192199707,1.1977291107177734
1717002216835231500,2.0972314453125,-0.5119794011116028,-1.562777042388916,1.1978020668029785
1717002216844897000,2.10689697265625,-0.5339289307594299,-2.2647671699523926,1.2251849174499512
1717002216854562600,2.1165625,-0.1489594578742981,-3.353984832763672,1.2655105590820312
1717002216864227800,2.126227783203125,0.04527968168258667,-4.523346424102783,1.258962631225586
1717002216873893400,2.135893310546875,0.008616387844085693,-4.7754902839660645,0.966066837310791
1717002216883559000,2.145558837890625,-0.22905731201171875,-4.3351616859436035,0.5804452896118164
1717002216893224200,2.15522412109375,-1.151544213294983,-3.826054096221924,0.4505958557128906
1717002216902889700,2.1648896484375,-2.2721073627471924,-3.4549918174743652,0.5849518775939941
1717002216912555300,2.17455517578125,-2.7737650871276855,-3.2249350547790527,0.5154933929443359
1717002216922220500,2.184220458984375,-2.3756959438323975,-3.149695873260498,0.25055503845214844
1717002216931886000,2.193885986328125,-1.3882701396942139,-3.1444716453552246,0.054843902587890625
1717002216941551600,2.203551513671875,-0.6945366859436035,-3.181415557861328,-0.12235355377197266
1717002216951217000,2.213216796875,-0.29199546575546265,-3.269287109375,-0.6590518951416016
1717002216960882400,2.22288232421875,0.04695534706115723,-3.152615547180176,-1.2507524490356445
1717002216970547700,2.232547607421875,0.390427827835083,-3.0605854988098145,-1.8566370010375977
1717002216980213200,2.242213134765625,0.6136853694915771,-2.8435487747192383,-2.342104434967041
1717002216989878800,2.251878662109375,0.56278395652771,-2.434929370880127,-2.5813698768615723
1717002216999544000,2.2615439453125,-0.02440871298313141,-2.0819625854492188,-2.614401340484619
1717002217009209600,2.271209716796875,-0.6636922359466553,-1.409487247467041,-2.668227195739746
1717002217018875100,2.280875244140625,-1.0434163808822632,-0.48198652267456055,-2.633476734161377
1717002217028540400,2.29054052734375,-1.30390465259552,0.15402889251708984,-2.3923559188842773
1717002217038206000,2.3002060546875,-1.3484569787979126,0.4513869285583496,-2.3622264862060547
1717002217047871500,2.30987158203125,-0.9542210698127747,0.521061897277832,-2.2350969314575195
1717002217057536800,2.319536865234375,-0.3611299991607666,0.42730712890625,-2.274613857269287
1717002217067202300,2.329202392578125,0.021082499995827675,0.4703054428100586,-2.1495046615600586
1717002217076867800,2.338867919921875,0.35938870906829834,0.8750519752502441,-2.2962303161621094
1717002217086533000,2.348533203125,0.7139360308647156,1.8047237396240234,-3.027247428894043
1717002217096198700,2.35819873046875,1.074055790901184,1.9624049663543701,-3.5978426933288574
1717002217105864200,2.3678642578125,1.3318524360656738,1.9378001689910889,-4.023049831390381
1717002217115529500,2.377529541015625,1.0342566967010498,1.7680261135101318,-4.2721991539001465
1717002217125195000,2.387195068359375,0.7142046689987183,1.7045586109161377,-4.423360824584961
1717002217134860300,2.3968603515625,0.7651031017303467,1.739823341369629,-4.5211334228515625
1717002217144525800,2.40652587890625,0.987138032913208,1.8651857376098633,-4.621236801147461
1717002217154191400,2.41619140625,1.4531052112579346,2.1439130306243896,-4.734508514404297
1717002217163857000,2.42585693359375,1.915647029876709,2.555225372314453,-4.774557113647461
1717002217173522200,2.435522216796875,2.0470428466796875,3.0911920070648193,-4.696291446685791
1717002217183187700,2.445187744140625,2.353423595428467,3.662724018096924,-4.718838691711426
1717002217192853200,2.454853271484375,2.66534423828125,4.359728813171387,-4.533530235290527
1717002217202518500,2.4645185546875,3.396021842956543,4.537047386169434,-3.934122085571289
1717002217212184000,2.47418408203125,3.6416993141174316,4.181804656982422,-2.7464780807495117
1717002217221849300,2.483849365234375,2.1537399291992188,3.516312837600708,-1.624709129333496
1717002217231515000,2.493514892578125,-4.599771499633789,2.597440481185913,1.771498680114746
1717002217241180400,2.503180419921875,-7.536358833312988,1.2318873405456543,4.721004962921143
1717002217250845700,2.512845703125,-8.996200561523438,-1.1455650329589844,6.565139293670654
1717002217260511200,2.52251123046875,-9.545242309570312,-4.123493194580078,8.044931411743164
1717002217270176800,2.5321767578125,-2.77490496635437,-4.148892879486084,7.93905782699585
1717002217279842000,2.541842041015625,-1.7509398460388184,-4.042428970336914,6.951170921325684
1717002217289507600,2.551507568359375,-2.5252819061279297,-3.8902621269226074,5.115050315856934
1717002217299173000,2.561173095703125,-1.149559736251831,-2.8945350646972656,2.967712879180908
1717002217308838400,2.57083837890625,2.071077346801758,-1.3006548881530762,1.6683859825134277
1717002217318504000,2.58050390625,5.683252811431885,0.32190752029418945,1.0180134773254395
1717002217328169500,2.59016943359375,7.882413387298584,1.4602265357971191,-0.09386444091796875
1717002217337834800,2.599834716796875,6.225614547729492,2.145453929901123,-1.2609167098999023
1717002217347500300,2.609500244140625,3.7991650104522705,2.7459139823913574,-2.340353488922119
1717002217357165800,2.619165771484375,-0.5886704325675964,3.0901851654052734,-3.3783926963806152
1717002217366831000,2.6288310546875,-12.329691886901855,2.3642630577087402,-4.843780994415283
1717002217376496600,2.63849658203125,-4.883191108703613,2.235647201538086,-3.1694750785827637
1717002217386162000,2.648161865234375,0.2566905617713928,2.2460598945617676,-2.3230552673339844
1717002217395827500,2.657827392578125,2.9457149505615234,1.4583392143249512,-1.5066425800323486
1717002217405493000,2.667492919921875,4.150525093078613,0.8654108047485352,-0.43526577949523926
1717002217415158300,2.677158203125,4.243988990783691,-0.42331790924072266,-0.13526701927185059
1717002217424823800,2.68682373046875,3.8229026794433594,-0.9416379928588867,-0.36705148220062256
1717002217434489300,2.6964892578125,2.5277271270751953,-1.4768495559692383,-1.1946295499801636
1717002217444154600,2.706154541015625,-5.663891792297363,-2.574366569519043,-4.580986499786377
1717002217453820200,2.715820068359375,-1.7769906520843506,-3.2619314193725586,-5.677854061126709
1717002217463485700,2.725485595703125,3.6864829063415527,-3.737175941467285,-4.326408386230469
1717002217473151000,2.73515087890625,5.724600315093994,-5.16733455657959,-3.856689453125
1717002217482816500,2.74481640625,6.608407020568848,-5.874046325683594,-4.397408962249756
1717002217492482000,2.75448193359375,7.097554683685303,-6.628098487854004,-5.315230369567871
1717002217502147300,2.764147216796875,7.621496200561523,-7.172889709472656,-6.089144229888916
1717002217511812900,2.773812744140625,7.056300640106201,-7.08845329284668,-6.364533424377441
1717002217521478400,2.783478515625,6.360560417175293,-5.761639595031738,-5.723573207855225
1717002217531143700,2.793143798828125,5.570710182189941,-3.1070375442504883,-3.9286651611328125
1717002217540809200,2.802809326171875,4.712090015411377,-1.0231447219848633,-3.0279428958892822
1717002217550474800,2.812474853515625,3.676414966583252,0.5946197509765625,-3.117264986038208
1717002217560140000,2.82214013671875,2.5944101810455322,1.7332706451416016,-3.1209614276885986
1717002217569805600,2.8318056640625,1.4795488119125366,2.403439521789551,-3.370072841644287
1717002217579471000,2.84147119140625,-0.8270905017852783,2.852466106414795,-3.7667858600616455
1717002217589136400,2.851136474609375,-5.811211109161377,3.244077682495117,-4.374765396118164
1717002217598802000,2.860802001953125,-8.11339282989502,3.4786601066589355,-4.110854148864746
1717002217608467500,2.870467529296875,-4.335431098937988,3.224552631378174,-2.961008071899414
1717002217618132700,2.8801328125,-0.6274521350860596,2.733954429626465,-1.3527109622955322
1717002217627798300,2.88979833984375,1.7742729187011719,2.6034674644470215,1.1042227745056152
1717002217637463600,2.899463623046875,3.473141670227051,2.9651331901550293,4.005073547363281
1717002217647129000,2.909129150390625,3.821410894393921,2.446735382080078,4.5732550621032715
1717002217656794600,2.918794677734375,3.440958261489868,1.603297233581543,2.615656852722168
1717002217666460000,2.9284599609375,2.7867045402526855,0.7730379104614258,0.550452470779419
1717002217676125400,2.93812548828125,2.282304525375366,0.6708183288574219,-0.5146896839141846
1717002217685791000,2.947791015625,1.6999824047088623,0.8744592666625977,-1.4140093326568604
1717002217695456300,2.957456298828125,0.934226930141449,1.1969232559204102,-1.3814949989318848
1717002217705121800,2.967121826171875,-0.7515590786933899,1.5338335037231445,-0.96787428855896
1717002217714787300,2.976787353515625,-2.227627754211426,1.7440872192382812,-0.252612829208374
1717002217724452600,2.98645263671875,-2.067960023880005,2.0367074012756348,0.5638253688812256
1717002217734118100,2.9961181640625,-1.163519263267517,1.2884197235107422,0.8969721794128418
1717002217743783700,3.00578369140625,-0.13459694385528564,0.4922008514404297,0.8382284641265869
1717002217753449000,3.015448974609375,0.07861900329589844,-0.3933277130126953,0.36240339279174805
1717002217763114500,3.025114501953125,-0.5451136827468872,-1.2849903106689453,-0.20804738998413086
1717002217772779800,3.03477978515625,-1.5003817081451416,-1.808645248413086,-0.5792241096496582
1717002217782445300,3.0444453125,-2.5392706394195557,-1.8802385330200195,-1.168306589126587
1717002217792110800,3.05411083984375,-2.636050224304199,-0.996485710144043,-0.43614959716796875
1717002217801776000,3.063776123046875,-2.7717528343200684,0.20541954040527344,0.05792546272277832
1717002217811441700,3.073441650390625,-1.9414775371551514,1.206648349761963,0.7935893535614014
1717002217821107200,3.083107177734375,-1.044852375984192,1.0045437812805176,1.0946919918060303
1717002217830772500,3.0927724609375,-0.948654294013977,0.9021816253662109,1.2846760749816895
1717002217840438000,3.10243798828125,-0.3038289546966553,0.9097204208374023,1.8522038459777832
1717002217850103600,3.112103515625,-1.3303701877593994,-0.18906784057617188,0.4539487361907959
1717002217859768800,3.121768798828125,-2.519926071166992,-1.0959558486938477,-0.4124593734741211
1717002217869434400,3.131434326171875,-3.956930160522461,-2.1520557403564453,-1.274388313293457
1717002217879100000,3.141099853515625,-4.799112319946289,-3.6432065963745117,-1.7579898834228516
1717002217888765200,3.15076513671875,-4.374380111694336,-3.596196174621582,-2.1253135204315186
1717002217898430700,3.1604306640625,-3.358450412750244,-3.6786603927612305,-1.2835052013397217
1717002217908096300,3.17009619140625,-2.50203013420105,-3.0472049713134766,-0.6793394088745117
1717002217917761500,3.179761474609375,-2.0813159942626953,-2.4413070678710938,-0.27420735359191895
1717002217927427000,3.189427001953125,-2.3626937866210938,-2.111880302429199,-0.3913602828979492
1717002217937092600,3.199092529296875,-3.263867139816284,-2.2238502502441406,-0.6508915424346924
1717002217946758000,3.2087578125,-4.265224456787109,-2.5329179763793945,-0.9227368831634521
1717002217956423400,3.21842333984375,-4.981867790222168,-2.943178176879883,-1.1293296813964844
1717002217966088700,3.228088623046875,-5.39687442779541,-3.214053153991699,-1.0680932998657227
1717002217975754200,3.237754150390625,-5.785595893859863,-3.3353424072265625,-0.8188543319702148
1717002217985419800,3.247419677734375,-5.799093246459961,-3.299239158630371,-0.6931161880493164
1717002217995085000,3.2570849609375,-5.243701934814453,-3.211092948913574,-0.6456408500671387
1717002218004750600,3.26675048828125,-3.758166551589966,-2.6387481689453125,-0.37747621536254883
1717002218014416100,3.276416015625,-2.025531530380249,-1.8130989074707031,-0.08590221405029297
1717002218024081400,3.286081298828125,-0.5211670994758606,-1.0170831680297852,0.0479426383972168
1717002218033747000,3.295746826171875,0.5105679035186768,-0.8535289764404297,-0.19947338104248047
1717002218043412500,3.30541259765625,1.6098488569259644,-1.3034343719482422,-0.4212665557861328
1717002218053077800,3.315077880859375,2.0984506607055664,-2.011305809020996,-0.6050748825073242
1717002218062743300,3.324743408203125,1.7127749919891357,-2.796438217163086,-0.8688015937805176
1717002218072408600,3.33440869140625,0.42068949341773987,-3.743450164794922,-0.7616329193115234
1717002218082074000,3.34407421875,-0.8130714297294617,-4.659275054931641,-0.6105828285217285
1717002218091739600,3.35373974609375,-0.7158592939376831,-5.051190376281738,-1.0207576751708984
1717002218101405000,3.363405029296875,0.8435657620429993,-5.08457088470459,-1.7555198669433594
1717002218111070500,3.373070556640625,2.714378833770752,-5.149232864379883,-2.1335136890411377
1717002218120736000,3.382736083984375,3.7835288047790527,-4.921277046203613,-2.284207344055176
1717002218130401300,3.3924013671875,3.6413416862487793,-4.157400131225586,-2.4351603984832764
1717002218140066800,3.40206689453125,2.4609375,-3.3082284927368164,-2.486459255218506
1717002218149732400,3.411732421875,0.14236783981323242,-2.371127128601074,-2.8032941818237305
1717002218159397600,3.421397705078125,-1.733400821685791,-1.5896596908569336,-3.5307798385620117
1717002218169063200,3.431063232421875,-1.7872698307037354,-1.1551122665405273,-4.125792503356934
1717002218178728700,3.440728759765625,-1.1493048667907715,-0.7449779510498047,-4.615994930267334
1717002218188394000,3.45039404296875,0.10518836975097656,-0.2177295684814453,-4.792684555053711
1717002218198059500,3.4600595703125,1.5623506307601929,0.10323619842529297,-4.164401054382324
1717002218207725000,3.46972509765625,2.6922354698181152,0.5003042221069336,-3.565828800201416
1717002218217390300,3.479390380859375,3.249008893966675,0.9448318481445312,-3.394456148147583
1717002218227055900,3.489055908203125,3.3982582092285156,1.2908859252929688,-3.6691744327545166
1717002218236721400,3.498721435546875,3.6573503017425537,1.7527494430541992,-3.539222240447998
1717002218246386700,3.50838671875,4.116154670715332,2.3159713745117188,-3.1426970958709717
1717002218256052200,3.51805224609375,4.275402069091797,2.748319625854492,-2.9235165119171143
1717002218265717500,3.527717529296875,4.380364418029785,3.0804834365844727,-2.990002155303955
1717002218275383000,3.537383056640625,4.35048770904541,3.3968958854675293,-2.791321277618408
1717002218285048600,3.547048583984375,4.040846824645996,3.693328380584717,-2.5342912673950195
1717002218294713900,3.5567138671875,3.733651876449585,3.8896970748901367,-2.185899257659912
1717002218304379400,3.56637939453125,3.543637752532959,4.145273685455322,-1.8986594676971436
1717002218314045000,3.576044921875,3.606675624847412,4.23607873916626,-1.6204625368118286
1717002218323710200,3.585710205078125,4.0353474617004395,4.516951084136963,-1.5142172574996948
1717002218333375700,3.595375732421875,4.045927047729492,4.754201412200928,-1.4770214557647705
1717002218343041000,3.605041015625,4.2902092933654785,5.08461332321167,-1.5740975141525269
1717002218352706600,3.61470654296875,4.638923645019531,5.634974002838135,-1.990626335144043
1717002218362372000,3.6243720703125,5.0019145011901855,6.092966556549072,-2.0928897857666016
1717002218372037400,3.634037353515625,5.267674446105957,6.4632649421691895,-1.8259533643722534
1717002218381703000,3.643702880859375,5.336247444152832,6.662710189819336,-1.316300868988037
1717002218391368400,3.653368408203125,4.866921424865723,6.60652494430542,-0.8589067459106445
1717002218401033700,3.66303369140625,3.8139195442199707,6.237236499786377,-0.38816070556640625
1717002218410699300,3.67269921875,2.0442233085632324,5.177398681640625,0.37719738483428955
1717002218420364800,3.68236474609375,-0.5547544956207275,4.0346760749816895,1.2682372331619263
1717002218430030000,3.692030029296875,-3.823619842529297,2.8179941177368164,2.0975310802459717
1717002218439695600,3.701695556640625,-7.789304733276367,0.8225822448730469,2.7021939754486084
1717002218449361200,3.711361083984375,-10.595385551452637,-1.9544916152954102,2.912667989730835
1717002218459026400,3.7210263671875,-9.24606704711914,-4.789399147033691,2.2127044200897217
1717002218468692000,3.73069189453125,-5.528027534484863,-6.797184944152832,1.5089662075042725
1717002218478357500,3.740357421875,-2.2393248081207275,-7.591681480407715,1.219496726989746
1717002218488022800,3.750022705078125,-0.3614020347595215,-6.920065879821777,0.6931402683258057
1717002218497688300,3.759688232421875,-0.2485191822052002,-5.089840888977051,-0.1960585117340088
1717002218507353900,3.769353759765625,-0.9187309741973877,-3.193584442138672,-0.5967452526092529
1717002218517019100,3.77901904296875,-1.759950876235962,-1.9785470962524414,-0.7258427143096924
1717002218526684700,3.7886845703125,-1.985318899154663,-1.1688289642333984,-0.9875353574752808
1717002218536350000,3.798349853515625,-1.3692255020141602,-0.6886110305786133,-1.2986273765563965
1717002218546015500,3.808015380859375,-0.4267618656158447,-0.2570486068725586,-1.5819453001022339
1717002218555681000,3.817680908203125,0.20459747314453125,0.2863759994506836,-1.927916169166565
1717002218565346300,3.82734619140625,0.5846564769744873,0.9443368911743164,-2.1430063247680664
1717002218575011800,3.83701171875,0.728764533996582,1.6434369087219238,-2.0001211166381836
1717002218584677400,3.846677490234375,0.8431127071380615,2.2287893295288086,-1.3573319911956787
1717002218594342700,3.8563427734375,1.295121192932129,2.467463970184326,-0.2809150218963623
1717002218604008200,3.86600830078125,1.8629993200302124,2.197399616241455,0.9464383125305176
1717002218613673500,3.875673583984375,2.365633249282837,1.5489253997802734,1.8160781860351562
1717002218623339000,3.885339111328125,3.740656614303589,1.0303878784179688,2.041557550430298
1717002218633004500,3.895004638671875,5.4674391746521,0.6757717132568359,1.2793302536010742
1717002218642669800,3.904669921875,6.556114196777344,0.5451154708862305,0.24892568588256836
1717002218652335400,3.91433544921875,6.660104751586914,-0.037822723388671875,-0.9539117813110352
1717002218662001000,3.9240009765625,5.866374969482422,-1.3453359603881836,-2.207293748855591
1717002218671666200,3.933666259765625,3.5148205757141113,-3.4294567108154297,-3.369244337081909
1717002218681331700,3.943331787109375,-6.65847635269165,-7.084779739379883,-4.284789085388184
1717002218690997200,3.952997314453125,-11.349206924438477,-7.787919044494629,-4.081275463104248
1717002218700662500,3.96266259765625,-5.149031639099121,-4.025358200073242,-3.2212822437286377
1717002218710328000,3.972328125,0.758206844329834,0.04296302795410156,-2.742194890975952
1717002218719993600,3.98199365234375,3.3434581756591797,2.9770407676696777,-2.78737211227417
1717002218729659000,3.991658935546875,3.391218662261963,4.676459789276123,-3.2815494537353516
1717002218739324400,4.001324462890625,2.0339183807373047,5.109796047210693,-3.731902599334717
1717002218748990000,4.010989990234375,0.4915211796760559,4.332282066345215,-3.79626727104187
1717002218758655200,4.0206552734375,0.6632982492446899,2.8681631088256836,-3.8468642234802246
1717002218768320800,4.03032080078125,2.2915821075439453,1.3090858459472656,-3.6525135040283203
1717002218777986000,4.039986083984375,3.5669188499450684,-0.14758872985839844,-3.382798194885254
1717002218787651600,4.049651611328125,4.002946376800537,-1.2731037139892578,-3.1601929664611816
1717002218797317000,4.059317138671875,3.3568978309631348,-2.2955522537231445,-2.7423627376556396
1717002218806982400,4.068982421875,2.018892526626587,-2.844466209411621,-1.8654389381408691
1717002218816648000,4.07864794921875,1.074883222579956,-2.4089889526367188,-0.6980891227722168
1717002218826313500,4.0883134765625,0.9167489409446716,-1.566329002380371,0.442842960357666
1717002218835978800,4.097978759765625,1.249817967414856,-0.8314628601074219,1.2138259410858154
1717002218845644300,4.107644287109375,1.6645138263702393,-0.22019577026367188,1.5176771879196167
1717002218855309600,4.1173095703125,1.9540252685546875,0.0036630630493164062,1.6038048267364502
1717002218864975000,4.12697509765625,1.7689684629440308,-0.1520833969116211,1.6347063779830933
1717002218874640600,4.136640625,1.5499231815338135,-0.4064760208129883,1.6373417377471924
1717002218884306000,4.146305908203125,1.2664704322814941,-0.4624185562133789,1.5167274475097656
1717002218893971500,4.155971435546875,1.0854308605194092,-0.38662242889404297,1.3589130640029907
1717002218903637000,4.165636962890625,0.9396382570266724,-0.22432422637939453,1.1681329011917114
1717002218913302300,4.17530224609375,0.8641884326934814,0.04637336730957031,0.9989631175994873
1717002218922967800,4.1849677734375,0.7437890768051147,0.20124053955078125,0.6934363842010498
1717002218932633300,4.19463330078125,0.519711971282959,0.24319076538085938,0.2423691749572754
1717002218942298600,4.204298583984375,0.27827852964401245,0.2941160202026367,-0.33864259719848633
1717002218951964200,4.213964111328125,-0.10113655030727386,0.31265735626220703,-0.8892772197723389
1717002218961629700,4.223629638671875,-0.7166579365730286,0.4196758270263672,-1.3635830879211426
1717002218971295000,4.233294921875,-1.290040135383606,0.602264404296875,-1.6448493003845215
1717002218980960500,4.24296044921875,-1.6514543294906616,0.6905536651611328,-1.742485761642456
1717002218990625800,4.252625732421875,-1.738537073135376,0.7704868316650391,-1.810948371887207
1717002219000291300,4.262291259765625,-1.1800727844238281,0.93701171875,-1.7430884838104248
1717002219009956900,4.271956787109375,-0.3074307441711426,1.0938711166381836,-1.673720121383667
1717002219019622100,4.2816220703125,0.3086754381656647,1.1548843383789062,-1.4638230800628662
1717002219029287700,4.29128759765625,0.5681257843971252,1.2228584289550781,-1.0874097347259521
1717002219038953200,4.300953125,0.44575947523117065,1.0880022048950195,-0.6298351287841797
1717002219048618500,4.310618408203125,0.011343354359269142,0.8949432373046875,-0.20136690139770508
1717002219058284000,4.320283935546875,-0.519157350063324,0.6496677398681641,0.08973503112792969
1717002219067949300,4.32994921875,-0.7058852910995483,0.3719034194946289,0.19450092315673828
1717002219077614800,4.33961474609375,-0.3777073323726654,-0.055359840393066406,0.04656553268432617
1717002219087280400,4.3492802734375,0.2060915231704712,-0.5697832107543945,-0.1501328945159912
1717002219096945700,4.358945556640625,0.8368459343910217,-1.0254192352294922,-0.3024790287017822
1717002219106611200,4.368611083984375,1.2301721572875977,-1.052189826965332,-0.2581205368041992
1717002219116276700,4.37827685546875,1.2916996479034424,-0.8445272445678711,-0.04679131507873535
1717002219125942000,4.38794189453125,0.9186155796051025,-0.4711885452270508,0.5498418807983398
1717002219135607600,4.397607666015625,0.4435650408267975,-0.047219276428222656,1.3163585662841797
1717002219145273000,4.407273193359375,0.2506815195083618,0.1822042465209961,1.4351065158843994
1717002219154938400,4.4169384765625,0.4397941827774048,0.3441123962402344,0.8895423412322998
1717002219164604000,4.42660400390625,0.45563584566116333,0.2752084732055664,0.41298937797546387
1717002219174269400,4.43626953125,0.877375602722168,0.10178852081298828,0.460125207901001
1717002219183934700,4.445934814453125,1.6217914819717407,0.2831583023071289,0.6721169948577881
1717002219193600300,4.455600341796875,2.5128281116485596,0.8928470611572266,0.9082150459289551
1717002219203265500,4.465265625,3.7072904109954834,1.8977537155151367,1.1663615703582764
1717002219212931000,4.47493115234375,4.149476051330566,2.904416561126709,1.388506531715393
1717002219222596600,4.4845966796875,3.7349770069122314,3.8449783325195312,1.9195419549942017
1717002219232262000,4.494261962890625,1.6737860441207886,4.199070930480957,2.4926939010620117
1717002219241927400,4.503927490234375,0.22046124935150146,3.9439640045166016,2.7237114906311035
1717002219251593000,4.513593017578125,-0.3325016498565674,2.8425540924072266,2.2180697917938232
1717002219261258200,4.52325830078125,-0.587708592414856,1.3463497161865234,0.49155259132385254
1717002219270923800,4.532923828125,-1.0165807008743286,-0.3319082260131836,-1.1798558235168457
1717002219280589000,4.542589111328125,-1.379212737083435,-2.19966983795166,-2.4555044174194336
1717002219290254600,4.552254638671875,-1.6120831966400146,-4.010645866394043,-3.56010365486145
1717002219299920100,4.561920166015625,-1.29537034034729,-5.382744789123535,-4.796239852905273
1717002219309585400,4.57158544921875,-0.9745900630950928,-6.202945709228516,-5.986282825469971
1717002219319251000,4.5812509765625,-0.8582596778869629,-6.501639366149902,-7.21768045425415
1717002219328916500,4.59091650390625,-0.6831831932067871,-5.737231254577637,-7.952870845794678
1717002219338581800,4.600581787109375,-0.7084193229675293,-3.9831418991088867,-7.927436828613281
1717002219348247300,4.610247314453125,-1.0135862827301025,-2.0903806686401367,-7.735490798950195
1717002219357912800,4.619912841796875,-1.6502792835235596,-0.5496301651000977,-7.483803749084473
1717002219367578000,4.629578125,-2.042600631713867,0.5230627059936523,-7.224429130554199
1717002219377243600,4.63924365234375,-1.7339260578155518,1.1084203720092773,-6.93178129196167
1717002219386909200,4.6489091796875,-0.945481538772583,1.1966819763183594,-6.37898063659668
1717002219396574500,4.658574462890625,-0.166853666305542,0.7483539581298828,-5.706870079040527
1717002219406240000,4.668239990234375,0.3728623390197754,-0.33332061767578125,-4.746419906616211
1717002219415905300,4.6779052734375,0.9663161039352417,-1.5952272415161133,-3.9632058143615723
1717002219425570800,4.68757080078125,2.0142953395843506,-2.276228904724121,-3.335221529006958
1717002219435236400,4.697236328125,3.2577383518218994,-1.9621715545654297,-2.8024189472198486
1717002219444901600,4.706901611328125,4.575827598571777,-0.758519172668457,-2.3240225315093994
1717002219454567200,4.716567138671875,5.689396381378174,0.43115711212158203,-1.7942767143249512
1717002219464232400,4.726232421875,6.0689544677734375,1.4193668365478516,-1.2231357097625732
1717002219473898000,4.73589794921875,5.753457546234131,2.156075954437256,-0.7629148960113525
1717002219483563500,4.7455634765625,4.698220252990723,2.4336299896240234,-0.5076587200164795
1717002219493228800,4.755228759765625,2.8620431423187256,2.5357017517089844,-0.38840675354003906
1717002219502894300,4.764894287109375,1.0726324319839478,2.607733726501465,0.32544445991516113
1717002219512559900,4.774559814453125,0.6642289161682129,2.796267032623291,1.7663623094558716
1717002219522225200,4.78422509765625,1.5422581434249878,2.2045373916625977,1.6116610765457153
1717002219531890700,4.793890625,2.5360193252563477,1.6705832481384277,1.395113229751587
1717002219541556000,4.803555908203125,3.4647035598754883,1.554090976715088,1.9723793268203735
1717002219551221500,4.813221435546875,4.4325337409973145,1.7831287384033203,2.0256359577178955
1717002219560887000,4.822886962890625,5.186844825744629,2.1139774322509766,2.653439521789551
1717002219570552300,4.83255224609375,5.4913763999938965,2.699678421020508,3.1198842525482178
1717002219580217900,4.8422177734375,5.250996112823486,3.370838165283203,3.9425735473632812
1717002219589883400,4.85188330078125,4.656923294067383,3.8045549392700195,5.228235721588135
1717002219599548700,4.861548583984375,4.1038498878479,4.037125587463379,6.085353374481201
1717002219609214200,4.871214111328125,2.8572793006896973,3.8772997856140137,7.485238075256348
1717002219618879700,4.880879638671875,0.4637410044670105,3.4394407272338867,8.392065048217773
1717002219628545000,4.890544921875,-3.289065361022949,2.4510488510131836,8.712883949279785
1717002219638210600,4.90021044921875,-7.871352672576904,0.5025815963745117,9.305037498474121
1717002219647875800,4.909875732421875,-7.38893461227417,-1.1031208038330078,8.007869720458984
1717002219657541400,4.919541259765625,-3.118785858154297,-1.7260637283325195,5.812410831451416
1717002219667207000,4.92920703125,1.0878310203552246,-1.6565923690795898,3.851405382156372
1717002219676872200,4.9388720703125,-1.5663589239120483,-3.2598495483398438,3.612426519393921
1717002219686537700,4.948537841796875,-8.197022438049316,-5.311739921569824,1.8080273866653442
1717002219696203300,4.958203369140625,-6.111902236938477,-4.188352584838867,-0.4103255271911621
1717002219705868500,4.96786865234375,3.117260456085205,-2.5222673416137695,0.2654728889465332
1717002219715534000,4.9775341796875,7.627253532409668,-1.8277902603149414,1.6170564889907837
1717002219725199400,4.987199462890625,6.252901077270508,-3.3398752212524414,0.2050156593322754
1717002219734865000,4.996864990234375,5.644591808319092,-5.6964874267578125,-0.6188504695892334
1717002219744530400,5.006530517578125,5.35772180557251,-8.257765769958496,-1.8853826522827148
1717002219754195700,5.01619580078125,6.259249210357666,-12.088804244995117,-3.147386074066162
1717002219763861200,5.025861328125,5.304934024810791,-15.662071228027344,-3.5345122814178467
1717002219773526800,5.03552685546875,0.10653546452522278,-16.739871978759766,-2.04022479057312
1717002219783192000,5.045192138671875,-15.068472862243652,-17.429243087768555,0.4467148780822754
1717002219792857600,5.054857666015625,-20.0056209564209,-15.493947982788086,1.752472996711731
1717002219802523100,5.064523193359375,-7.923518180847168,-10.26722240447998,-0.303009033203125
1717002219812188400,5.0741884765625,-1.0640305280685425,-6.541413307189941,-1.893327236175537
1717002219821854000,5.08385400390625,-0.7985152006149292,-4.38715934753418,-1.8900432586669922
1717002219831519500,5.09351953125,-5.211893558502197,-1.827713966369629,-1.4359478950500488
1717002219841184800,5.103184814453125,-13.877359390258789,1.750290870666504,-2.272278070449829
1717002219850850300,5.112850341796875,-14.309857368469238,4.730882167816162,-2.9078164100646973
1717002219860515600,5.122515625,-9.01321792602539,6.57367467880249,-3.4480032920837402
1717002219870181000,5.13218115234375,-5.64838981628418,7.670346736907959,-2.6151411533355713
1717002219879846700,5.1418466796875,-3.4735732078552246,8.854445457458496,-1.292959451675415
1717002219889512000,5.151511962890625,0.3025236129760742,9.473576545715332,0.9229151010513306
1717002219899177500,5.161177490234375,3.749608039855957,9.357155799865723,2.5480222702026367
1717002219908842800,5.1708427734375,4.986403465270996,8.452045440673828,3.1964499950408936
1717002219918508300,5.18050830078125,5.353480339050293,6.971990585327148,2.481478214263916
1717002219928173800,5.190173828125,6.695519924163818,5.619531631469727,1.1604931354522705
1717002219937839000,5.199839111328125,7.753368377685547,5.149432182312012,-0.24316295981407166
1717002219947504600,5.209504638671875,9.40080451965332,4.893552780151367,-0.9552640318870544
1717002219957170200,5.219170166015625,10.44044017791748,4.790988445281982,-1.7429673671722412
1717002219966835500,5.22883544921875,11.455656051635742,4.954666614532471,-2.9009907245635986
1717002219976501000,5.2385009765625,10.368059158325195,4.6755805015563965,-3.8540329933166504
1717002219986166500,5.24816650390625,9.58707046508789,4.126974582672119,-4.263991832733154
1717002219995831800,5.257831787109375,6.605301856994629,3.197478771209717,-4.093775749206543
1717002220005497300,5.267497314453125,-1.898301124572754,0.8806452751159668,-3.1101016998291016
1717002220015163000,5.277162841796875,-10.306913375854492,-2.5307774543762207,-2.4170801639556885
1717002220024828200,5.286828125,-10.36715316772461,-5.311944961547852,-3.4447474479675293
1717002220034493700,5.29649365234375,-5.162020206451416,-6.875072956085205,-4.476312160491943
1717002220044159200,5.3061591796875,-1.5027079582214355,-7.3148088455200195,-3.126214027404785
1717002220053824500,5.315824462890625,1.1102514266967773,-6.432702541351318,-1.1287076473236084
1717002220063490000,5.325489990234375,3.4069855213165283,-4.964877128601074,0.14767158031463623
1717002220073155300,5.3351552734375,5.8270111083984375,-3.535329818725586,2.2576661109924316
1717002220082820900,5.34482080078125,4.876779079437256,-2.236668586730957,3.4326348304748535
1717002220092486400,5.354486328125,0.8980584144592285,-1.0817890167236328,3.1419620513916016
1717002220102151700,5.364151611328125,-2.024782657623291,-0.9184045791625977,1.9124114513397217
1717002220111817200,5.373817138671875,-1.9208621978759766,-1.6634187698364258,0.5231219530105591
1717002220121482500,5.383482421875,-0.847078800201416,-2.9629077911376953,-1.2365360260009766
1717002220131148000,5.39314794921875,0.1281585693359375,-4.660676002502441,-2.8681960105895996
1717002220140813600,5.4028134765625,1.0144004821777344,-6.055316925048828,-4.20288610458374
1717002220150478800,5.412478759765625,1.6661274433135986,-6.3215837478637695,-5.300522804260254
1717002220160144400,5.422144287109375,0.6489822864532471,-6.682039260864258,-6.0816330909729
1717002220169810000,5.431809814453125,2.5124990940093994,-4.83474063873291,-4.391785621643066
1717002220179475200,5.44147509765625,2.9881844520568848,-1.905080795288086,-0.7194035053253174
1717002220189140700,5.451140625,3.9898602962493896,1.232370376586914,0.7244143486022949
1717002220198806300,5.46080615234375,4.331973075866699,3.5509815216064453,0.8102065324783325
1717002220208471600,5.470471435546875,4.232555389404297,5.850268363952637,2.140143394470215
1717002220218137000,5.48013720703125,2.412712574005127,8.742176055908203,4.713595390319824
1717002220227802600,5.489802734375,3.4993858337402344,10.069759368896484,5.954540252685547
1717002220237468000,5.499468017578125,5.1816511154174805,10.052762985229492,6.258166790008545
1717002220247133400,5.509133544921875,5.935924053192139,9.932843208312988,5.577801704406738
1717002220256798700,5.518798828125,5.666637897491455,9.909564018249512,4.573495864868164
1717002220266464300,5.52846435546875,4.17864465713501,9.953866004943848,3.3890371322631836
1717002220276129800,5.5381298828125,2.240959644317627,9.94902229309082,2.5383918285369873
1717002220285795000,5.547795166015625,-0.3196084499359131,9.831075668334961,1.8921971321105957
1717002220295460600,5.557460693359375,-17.906776428222656,8.41366958618164,5.575860023498535
1717002220305126000,5.5671259765625,-14.202138900756836,7.2689971923828125,5.1274333000183105
1717002220314791400,5.57679150390625,-10.951963424682617,7.263031959533691,2.9305548667907715
1717002220324457000,5.58645703125,-9.059657096862793,7.5416364669799805,0.5756289958953857
1717002220334122200,5.596122314453125,-10.35938835144043,8.163202285766602,-3.6401615142822266
1717002220343787800,5.605787841796875,-16.05545997619629,6.808197021484375,-8.035305976867676
1717002220353453300,5.615453369140625,-12.472249984741211,0.794224739074707,-9.684357643127441
1717002220363118600,5.62511865234375,-6.695321083068848,-1.7305564880371094,-7.081317901611328
1717002220372784000,5.6347841796875,-13.193679809570312,-3.313936233520508,-1.3973853588104248
1717002220382449400,5.644449462890625,3.9772377014160156,-7.78614616394043,0.03868997097015381
1717002220392115000,5.654114990234375,8.867716789245605,-11.235564231872559,-1.672849178314209
1717002220401780500,5.663780517578125,9.484482765197754,-13.689168930053711,-2.405452251434326
1717002220411445800,5.67344580078125,12.476103782653809,-17.368755340576172,-0.9962008595466614
1717002220421111300,5.683111328125,11.320820808410645,-17.457218170166016,-0.634468138217926
1717002220430776800,5.69277685546875,7.926682949066162,-15.954493522644043,-0.9812183380126953
1717002220440442000,5.702442138671875,5.680768013000488,-14.109390258789062,-1.079577922821045
1717002220450107600,5.712107666015625,3.8764193058013916,-12.714280128479004,-1.2375707626342773
1717002220459773200,5.721773193359375,1.8779025077819824,-13.9221830368042,-0.7902235984802246
1717002220469438500,5.7314384765625,-0.5997296571731567,-15.491777420043945,-0.8358269929885864
1717002220479104000,5.74110400390625,-2.8532376289367676,-15.43781566619873,-0.6354224681854248
1717002220488769300,5.750769287109375,-5.878951549530029,-14.275259017944336,-0.15758097171783447
1717002220498434800,5.760434814453125,-10.668039321899414,-12.878036499023438,0.3222273588180542
1717002220508100400,5.770100341796875,-12.762063980102539,-10.575949668884277,0.3685624599456787
1717002220517765600,5.779765625,-11.19218635559082,-7.789219856262207,-0.08913087844848633
1717002220527431200,5.78943115234375,-9.1753568649292,-5.6493940353393555,-0.473056435585022
1717002220537096700,5.7990966796875,-7.518130302429199,-3.268075942993164,-0.30436038970947266
1717002220546762000,5.808761962890625,-7.186776638031006,-0.26964378356933594,-0.21152544021606445
1717002220556427500,5.818427490234375,-9.73282241821289,3.384817600250244,-0.41623425483703613
1717002220566092800,5.8280927734375,-10.902034759521484,6.293748378753662,0.04700911045074463
1717002220575758300,5.83775830078125,-9.14580249786377,8.03841495513916,0.8942005038261414
1717002220585424000,5.847423828125,-6.514665603637695,9.28787899017334,1.4949560165405273
1717002220595089200,5.857089111328125,-3.8325963020324707,10.052845001220703,2.67741060256958
1717002220604754700,5.866754638671875,0.7432821989059448,10.03513240814209,4.254810333251953
1717002220614420200,5.876420166015625,5.346216201782227,9.298727989196777,4.5725884437561035
1717002220624085500,5.88608544921875,7.457691192626953,8.355390548706055,3.4193267822265625
1717002220633751000,5.8957509765625,8.862879753112793,7.495678901672363,2.3856184482574463
1717002220643416600,5.90541650390625,8.020397186279297,7.157346248626709,0.899612545967102
1717002220653081900,5.915081787109375,6.242255210876465,6.893887042999268,0.2144566774368286
1717002220662747400,5.924747314453125,3.4889144897460938,6.489719390869141,-0.8812577128410339
1717002220672412700,5.93441259765625,2.364152431488037,6.16832971572876,-3.292189121246338
1717002220682078200,5.944078125,3.459409713745117,5.726758003234863,-4.437528610229492
1717002220691743700,5.95374365234375,5.127533435821533,5.080289840698242,-5.412383079528809
1717002220701409000,5.963408935546875,5.889566421508789,4.060855865478516,-6.29201078414917
1717002220711074600,5.973074462890625,6.151248931884766,3.3800954818725586,-6.725176811218262
1717002220720740000,5.982739990234375,6.7181396484375,2.8044161796569824,-6.401769638061523
1717002220730405400,5.9924052734375,6.578054428100586,2.0719375610351562,-6.14985466003418
1717002220740071000,6.00207080078125,4.844061851501465,0.891566276550293,-5.400126934051514
1717002220749736200,6.011736083984375,2.171236991882324,-0.9985461235046387,-3.6120429039001465
1717002220759401700,6.021401611328125,0.14695310592651367,-3.176056385040283,-1.786392092704773
1717002220769067300,6.0310673828125,-1.4992809295654297,-5.7716064453125,-0.2748706340789795
1717002220778732500,6.040732666015625,-2.2219667434692383,-8.592151641845703,0.6886324882507324
1717002220788398000,6.050398193359375,-1.9642844200134277,-10.67900276184082,1.2283415794372559
1717002220798063600,6.060063720703125,-1.4145236015319824,-10.377796173095703,1.3819794654846191
1717002220807729000,6.06972900390625,0.1457815170288086,-7.843912124633789,0.5771162509918213
1717002220817394400,6.07939453125,2.37580943107605,-5.118797302246094,-0.3244972229003906
1717002220827060000,6.08906005859375,4.244626998901367,-2.937930107116699,-0.4346153736114502
1717002220836725200,6.098725341796875,3.599693536758423,-1.3522071838378906,-0.20392465591430664
1717002220846390800,6.108390869140625,1.7149004936218262,0.2735562324523926,-0.6115353107452393
1717002220856056000,6.11805615234375,0.21021747589111328,1.4713621139526367,-1.7972650527954102
1717002220865721600,6.1277216796875,-0.34073638916015625,1.0280838012695312,-2.7968101501464844
1717002220875387100,6.13738720703125,0.3057584762573242,-0.5251865386962891,-3.0546348094940186
1717002220885052400,6.147052490234375,1.4030981063842773,-2.678114891052246,-3.1355466842651367
1717002220894718000,6.156718017578125,2.228684186935425,-5.216127395629883,-2.953157901763916
1717002220904383200,6.16638330078125,2.7802693843841553,-7.838794708251953,-2.7423763275146484
1717002220914048800,6.176048828125,3.0865492820739746,-9.81088924407959,-2.6893255710601807
1717002220923714300,6.18571435546875,2.1271309852600098,-10.579815864562988,-2.8563663959503174
1717002220933379600,6.195379638671875,0.8265011310577393,-8.95676326751709,-2.7340312004089355
1717002220943045000,6.205045166015625,0.3537428379058838,-5.201624870300293,-2.191314220428467
1717002220952710700,6.214710693359375,1.7210890054702759,-1.3022451400756836,-1.5034860372543335
1717002220962376000,6.2243759765625,5.066300392150879,1.7873334884643555,-0.5936846733093262
1717002220972041500,6.23404150390625,7.468409538269043,4.189526557922363,0.7698761224746704
1717002220981706800,6.243706787109375,7.217587471008301,6.393662452697754,1.914955496788025
1717002220991372300,6.253372314453125,6.708620071411133,7.877721786499023,3.4185023307800293
1717002221001037800,6.263037841796875,3.878368616104126,7.7889251708984375,14.609128952026367
1717002221010703000,6.272703125,2.6766953468322754,9.264050483703613,8.339583396911621
1717002221020368600,6.28236865234375,1.3858035802841187,9.967561721801758,3.0343375205993652
1717002221030034200,6.2920341796875,-1.3349621295928955,10.274371147155762,1.1970614194869995
1717002221039699500,6.301699462890625,-6.764301300048828,11.118639945983887,-0.16533678770065308
1717002221049365000,6.311364990234375,-17.8283748626709,13.154716491699219,-2.5582168102264404
1717002221059030500,6.321030517578125,-18.05434226989746,13.12158203125,-4.196290969848633
1717002221068695800,6.33069580078125,-16.01003646850586,11.958784103393555,-4.926908016204834
1717002221078361300,6.340361328125,-10.988142967224121,10.072300910949707,-5.127473831176758
1717002221088026600,6.350026611328125,-5.278329849243164,8.994885444641113,-5.602733612060547
1717002221097692200,6.359692138671875,-6.408381938934326,8.050677299499512,-7.134102821350098
1717002221107357700,6.369357666015625,-15.082693099975586,3.6188812255859375,-7.869845867156982
1717002221117023000,6.37902294921875,-6.175293922424316,1.3325567245483398,-3.5833475589752197
1717002221126688500,6.3886884765625,4.324032783508301,2.992180824279785,-1.676117181777954
1717002221136353800,6.398353759765625,5.375436782836914,0.4921398162841797,-1.5213298797607422
1717002221146019300,6.408019287109375,5.255950927734375,-4.372409820556641,-1.5792906284332275
1717002221155684900,6.417684814453125,5.015836715698242,-10.200725555419922,-1.7038359642028809
1717002221165350100,6.42735009765625,0.13448137044906616,-18.637592315673828,-1.529977798461914
1717002221175015700,6.437015625,-1.943190336227417,-25.272109985351562,-1.295849084854126
1717002221184681200,6.44668115234375,2.9478402137756348,-25.35213279724121,-1.3565537929534912
1717002221194346500,6.456346435546875,5.290720462799072,-24.626815795898438,-0.4398127794265747
1717002221204012000,6.466011962890625,3.8017725944519043,-22.481483459472656,0.9592691659927368
1717002221213677600,6.475677490234375,1.5833903551101685,-20.47431755065918,2.1916022300720215
1717002221223342800,6.4853427734375,-0.511528730392456,-17.36276626586914,3.3248510360717773
1717002221233008400,6.49500830078125,-1.831128716468811,-14.372452735900879,4.551505088806152
1717002221242674000,6.504673828125,-2.6501474380493164,-11.345321655273438,4.772645950317383
1717002221252339200,6.514339111328125,-5.696038246154785,-9.029690742492676,5.822061538696289
1717002221262004700,6.524004638671875,-11.107865333557129,-6.819931983947754,6.826322555541992
1717002221271670000,6.533669921875,-11.066510200500488,-5.121236801147461,5.980626106262207
1717002221281335600,6.54333544921875,-8.345291137695312,-3.70322322845459,4.103614807128906
1717002221291001000,6.5530009765625,-6.97052526473999,-1.931807518005371,2.258176803588867
1717002221300666400,6.562666259765625,-5.414670467376709,0.1693429946899414,1.0956552028656006
1717002221310332000,6.572331787109375,-4.213540077209473,2.2218856811523438,0.5138719081878662
1717002221319997200,6.5819970703125,-4.100015163421631,3.748162269592285,0.20002341270446777
1717002221329662700,6.591662841796875,-2.962836742401123,4.953693866729736,0.05055499076843262
1717002221339328300,6.601328369140625,-0.4369078278541565,5.91819953918457,0.07633054256439209
1717002221348993500,6.61099365234375,2.312450408935547,6.909926414489746,0.5898712873458862
1717002221358659000,6.6206591796875,4.250323295593262,7.967901229858398,1.6609619855880737
1717002221368324400,6.630324462890625,4.927757263183594,9.015254974365234,4.227677345275879
1717002221377990000,6.639989990234375,3.6325016021728516,9.579423904418945,6.332876205444336
1717002221387655400,6.649655517578125,2.258143186569214,9.149348258972168,5.479128360748291
1717002221397320700,6.65932080078125,2.822911024093628,8.636209487915039,3.618129253387451
1717002221406986200,6.668986328125,3.8129706382751465,8.315878868103027,2.100092887878418
1717002221416651800,6.67865185546875,4.023733139038086,8.092951774597168,0.25827717781066895
1717002221426317000,6.688317138671875,4.720047950744629,7.565932273864746,-2.1889867782592773
1717002221435982600,6.697982666015625,5.452518463134766,6.967841625213623,-4.0286455154418945
1717002221445648100,6.707648193359375,5.6704301834106445,6.414251327514648,-5.41847038269043
1717002221455313400,6.7173134765625,4.82135009765625,5.860907077789307,-6.712190628051758
1717002221464979000,6.72697900390625,-0.8838181495666504,5.199644088745117,-8.634987831115723
1717002221474644200,6.736644287109375,-3.698338747024536,3.8124606609344482,-9.987024307250977
1717002221484309800,6.746309814453125,-1.3214187622070312,2.6173629760742188,-10.71859073638916
1717002221493975300,6.755975341796875,2.7753968238830566,1.5515565872192383,-10.88074016571045
1717002221503640600,6.765640625,7.0150604248046875,-0.06227827072143555,-9.586997985839844
1717002221513306000,6.77530615234375,7.648550987243652,-1.9761061668395996,-6.410373687744141
1717002221522971600,6.7849716796875,2.7435503005981445,-3.9279985427856445,-2.585145950317383
1717002221532637000,6.794636962890625,-4.073445796966553,-6.567636489868164,0.9720673561096191
1717002221542302500,6.804302490234375,-5.22908878326416,-9.10999584197998,4.1155524253845215
1717002221551967700,6.8139677734375,-2.8314943313598633,-12.639013290405273,7.7855682373046875
1717002221561633300,6.82363330078125,-0.32890844345092773,-14.085155487060547,9.824052810668945
1717002221571298800,6.833298828125,1.678173303604126,-11.847160339355469,8.018619537353516
1717002221580964000,6.842964111328125,3.19954252243042,-8.428339004516602,5.372572898864746
1717002221590629600,6.852629638671875,2.630873203277588,-4.915261745452881,4.230550765991211
1717002221600295200,6.862295166015625,0.41374826431274414,-1.4647011756896973,3.855351448059082
1717002221609960400,6.87196044921875,-1.3871855735778809,2.2494826316833496,3.536513328552246
1717002221619626000,6.8816259765625,-1.0760467052459717,4.5093464851379395,3.782759666442871
1717002221629291500,6.89129150390625,-0.11411547660827637,4.7985615730285645,4.590536117553711
1717002221638956800,6.900956787109375,-0.433333158493042,1.1708521842956543,5.573721885681152
1717002221648622300,6.910622314453125,0.355251669883728,-2.39277982711792,6.031558513641357
1717002221658287600,6.92028759765625,1.0989223718643188,-4.275286674499512,5.730554580688477
1717002221667953200,6.929953125,1.1686208248138428,-5.077702522277832,4.5714030265808105
1717002221677618700,6.93961865234375,1.2987189292907715,-4.86262321472168,2.7436933517456055
1717002221687284000,6.949283935546875,1.7330210208892822,-3.8034934997558594,0.5901474952697754
1717002221696949500,6.958949462890625,2.468287467956543,-2.3145275115966797,-1.1816163063049316
1717002221706614800,6.96861474609375,3.5047359466552734,-0.7215118408203125,-2.452706813812256
1717002221716280300,6.9782802734375,4.462419509887695,0.6770858764648438,-3.011549472808838
1717002221725945900,6.98794580078125,4.505270957946777,2.055412769317627,-3.098763942718506
1717002221735611100,6.997611083984375,3.8387351036071777,3.5250415802001953,-3.3242907524108887
1717002221745276700,7.007276611328125,2.5826756954193115,4.995951175689697,-3.6316287517547607
1717002221754942200,7.016942138671875,0.7647267580032349,6.398239612579346,-3.894801139831543
1717002221764607500,7.026607421875,-1.7478703260421753,7.680139541625977,-3.9273648262023926
1717002221774273000,7.03627294921875,-4.159925937652588,9.0078706741333,-4.019744873046875
1717002221783938600,7.0459384765625,-4.289500713348389,9.63044548034668,-4.140449523925781
1717002221793603800,7.055603759765625,-3.913142681121826,9.759647369384766,-4.37734317779541
1717002221803269400,7.065269287109375,-3.735238790512085,9.652344703674316,-4.156558036804199
1717002221812934700,7.0749345703125,-4.461731433868408,9.693808555603027,-3.6953628063201904
1717002221822600200,7.08460009765625,-5.289383411407471,9.698670387268066,-3.098466157913208
1717002221832265700,7.094265625,-1.535455584526062,9.129189491271973,-3.126809597015381
1717002221841931000,7.103930908203125,-0.06636208295822144,8.922567367553711,-2.8874495029449463
1717002221851596500,7.113596435546875,-1.7299907207489014,8.977669715881348,-1.9360899925231934
1717002221861262000,7.123261962890625,-20.844120025634766,9.43967342376709,0.3499124050140381
1717002221870927400,7.13292724609375,-15.94233512878418,7.107292175292969,0.007999658584594727
1717002221880593000,7.142593017578125,-0.7618869543075562,6.359572410583496,-0.763512134552002
1717002221890258200,7.152258056640625,3.649829626083374,5.721833229064941,-0.9793586730957031
1717002221899923700,7.161923828125,4.514754772186279,4.813640117645264,-0.929296612739563
1717002221909589200,7.17158935546875,4.0616254806518555,2.243910312652588,0.5396530628204346
1717002221919254500,7.181254638671875,5.5692138671875,0.8190298080444336,2.4619312286376953
1717002221928920000,7.190920166015625,6.549277305603027,-1.1769027709960938,3.6201107501983643
1717002221938585300,7.20058544921875,6.248055934906006,-4.811351776123047,4.901525497436523
1717002221948251000,7.2102509765625,6.256434440612793,-10.454203605651855,6.415142059326172
1717002221957916400,7.21991650390625,6.758837699890137,-17.021175384521484,7.982192039489746
1717002221967581700,7.229581787109375,5.913083553314209,-23.79819107055664,8.978466033935547
1717002221977247200,7.239247314453125,-0.7077435255050659,-29.61166000366211,9.556711196899414
1717002221986912800,7.248912841796875,-4.069874286651611,-31.456188201904297,8.671038627624512
1717002221996578000,7.258578125,1.4203927516937256,-25.224199295043945,6.689291000366211
1717002222006243600,7.26824365234375,3.131516933441162,-21.738338470458984,5.363431930541992
1717002222015909000,7.2779091796875,2.540501356124878,-16.55228042602539,3.398752212524414
1717002222025574400,7.287574462890625,0.8673765659332275,-11.069604873657227,2.000824451446533
1717002222035240000,7.297239990234375,-3.7096168994903564,-6.729739189147949,1.0162432193756104
1717002222044905200,7.3069052734375,-11.548497200012207,-3.272125244140625,0.6643829345703125
1717002222054570800,7.31657080078125,-8.869330406188965,-1.8694286346435547,1.7210807800292969
1717002222064236300,7.326236328125,-7.829260349273682,-0.5781965255737305,1.8176888227462769
1717002222073901600,7.335901611328125,-8.978391647338867,1.715627670288086,0.8489936590194702
1717002222083567000,7.345567138671875,-4.763158798217773,3.849874496459961,0.009537458419799805
1717002222093232400,7.355232421875,-0.0288933664560318,5.692777156829834,-0.40982019901275635
1717002222102898000,7.36489794921875,2.934657335281372,6.829378128051758,-0.08373022079467773
1717002222112563500,7.3745634765625,3.2440731525421143,7.742653846740723,1.0291719436645508
1717002222122228700,7.384228759765625,2.4831693172454834,8.452482223510742,3.0236871242523193
1717002222131894300,7.393894287109375,2.399604558944702,8.446187973022461,5.207423686981201
1717002222141559800,7.403559814453125,2.645590305328369,8.127533912658691,7.984400272369385
1717002222151225000,7.41322509765625,-0.4285925328731537,8.301787376403809,8.737394332885742
1717002222160890600,7.422890625,-4.5355963706970215,9.069857597351074,6.620702266693115
1717002222170556200,7.43255615234375,-1.6272952556610107,8.845808982849121,2.2645905017852783
1717002222180221400,7.442221435546875,-2.3196208477020264,8.901276588439941,-2.7278287410736084
1717002222189887000,7.451886962890625,-8.381571769714355,9.236953735351562,-7.028899669647217
1717002222199552500,7.461552490234375,-7.557246685028076,9.004327774047852,-9.72575569152832
1717002222209217800,7.4712177734375,1.3220592737197876,7.920845985412598,-10.493949890136719
1717002222218883300,7.48088330078125,4.681549549102783,7.249386787414551,-11.27458381652832
1717002222228548600,7.490548583984375,5.761810779571533,6.468690395355225,-10.993927001953125
1717002222238214100,7.500214111328125,5.62886905670166,5.713508605957031,-10.286540985107422
1717002222247879700,7.509879638671875,5.530882835388184,4.731973648071289,-9.590141296386719
1717002222257545000,7.519544921875,5.621954917907715,3.8334858417510986,-8.713370323181152
1717002222267210500,7.52921044921875,5.620258331298828,3.2146944999694824,-8.193878173828125
1717002222276875800,7.538875732421875,5.665982246398926,2.523327589035034,-7.788573265075684
1717002222286541300,7.548541259765625,5.526899337768555,1.6237776279449463,-6.9586873054504395
1717002222296206800,7.558206787109375,-0.6552306413650513,-1.799069881439209,-2.945634365081787
1717002222305872100,7.5678720703125,-13.3630952835083,-9.122217178344727,5.724434852600098
1717002222315537700,7.57753759765625,-3.4428024291992188,-14.93465805053711,10.273672103881836
1717002222325203200,7.587203125,1.9959344863891602,-20.40262794494629,13.361862182617188
1717002222334868500,7.596868408203125,5.239168167114258,-22.955371856689453,13.918000221252441
1717002222344534000,7.606533935546875,4.794318675994873,-19.98401641845703,13.879494667053223
1717002222354199600,7.616199462890625,0.8740015029907227,-13.978185653686523,11.543451309204102
1717002222363864800,7.62586474609375,0.19646640121936798,-9.59644889831543,6.220796585083008
1717002222373530400,7.6355302734375,1.1608104705810547,-6.496446132659912,3.944796562194824
1717002222383195600,7.645195556640625,1.3885366916656494,-4.264334678649902,2.6108603477478027
1717002222392861200,7.654861083984375,1.751173734664917,-2.994131565093994,1.5630226135253906
1717002222402526700,7.664526611328125,2.4691920280456543,-2.3698854446411133,0.6823921203613281
1717002222412192000,7.67419189453125,2.769443988800049,-2.1714038848876953,-0.21436023712158203
1717002222421857500,7.683857421875,2.4959070682525635,-1.968367099761963,-1.2440876960754395
1717002222431523000,7.693523193359375,1.7523045539855957,-1.6627497673034668,-2.1055421829223633
1717002222441188400,7.703188232421875,0.56212317943573,-1.0794429779052734,-2.862771987915039
1717002222450854000,7.71285400390625,0.035632550716400146,-0.32286596298217773,-3.3083877563476562
1717002222460519200,7.722519287109375,0.7713439464569092,0.5921955108642578,-3.161691904067993
1717002222470184700,7.732184814453125,2.263288974761963,1.86729097366333,-2.5297508239746094
1717002222479850200,7.741850341796875,3.2425498962402344,3.542874813079834,-1.7952730655670166
1717002222489515500,7.751515625,2.6260571479797363,4.926825046539307,-1.2997422218322754
1717002222499181000,7.76118115234375,-0.3629516363143921,6.437990188598633,-0.4752326011657715
1717002222508846300,7.770846435546875,-3.587364673614502,8.235440254211426,0.04052734375
1717002222518511900,7.780511962890625,-4.254428386688232,9.605326652526855,-0.3018341064453125
1717002222528177400,7.790177490234375,-3.0668997764587402,10.135811805725098,-0.8152227401733398
1717002222537842700,7.7998427734375,-1.1887942552566528,9.783202171325684,-1.844843864440918
1717002222547508200,7.80950830078125,-1.0442414283752441,10.111973762512207,-2.4298183917999268
1717002222557173800,7.819173828125,-0.7939026951789856,9.913921356201172,-2.3304429054260254
1717002222566839000,7.828839111328125,-1.3735054731369019,9.975132942199707,-2.004363775253296
1717002222576504600,7.838504638671875,-6.761455059051514,11.105966567993164,-2.2996439933776855
1717002222586170000,7.848170166015625,-8.645715713500977,11.961844444274902,-2.497286319732666
1717002222595835400,7.85783544921875,-4.47599458694458,10.786242485046387,-2.26531982421875
1717002222605501000,7.8675009765625,-6.356550216674805,10.496477127075195,-3.1570446491241455
1717002222615166200,7.877166259765625,-7.227548122406006,8.297603607177734,-3.3048958778381348
1717002222624831700,7.886831787109375,-3.2223331928253174,1.1539878845214844,-2.0932607650756836
1717002222634497300,7.896497314453125,0.35788723826408386,4.634054183959961,-3.07244873046875
1717002222644162600,7.90616259765625,-0.36592355370521545,4.839037895202637,-2.524946928024292
1717002222653828000,7.915828125,0.8946243524551392,4.096095561981201,-1.2737720012664795
1717002222663493600,7.92549365234375,3.4286975860595703,3.02886962890625,0.5814542770385742
1717002222673159000,7.935158935546875,2.4528579711914062,0.12112045288085938,3.0633115768432617
1717002222682824400,7.944824462890625,-8.034051895141602,-8.208517074584961,7.588359355926514
1717002222692489700,7.95448974609375,0.3727816939353943,-13.849662780761719,9.50095272064209
1717002222702155300,7.9641552734375,7.771183013916016,-15.803248405456543,10.747325897216797
1717002222711820800,7.97382080078125,6.910745143890381,-22.118736267089844,12.897871017456055
1717002222721486000,7.983486083984375,7.084587097167969,-25.41731834411621,12.912418365478516
1717002222731151600,7.993151611328125,6.238589286804199,-28.532596588134766,12.233794212341309
1717002222740817200,8.002817138671874,2.927785634994507,-29.79452133178711,10.376358032226562
1717002222750482400,8.012482421875,-4.741219520568848,-25.994848251342773,8.368653297424316
1717002222760148000,8.02214794921875,-4.131846904754639,-19.157752990722656,5.847525119781494
1717002222769813500,8.0318134765625,-5.086112022399902,-13.09029769897461,3.4462692737579346
1717002222779478800,8.041478759765624,-8.853163719177246,-8.645221710205078,0.7462098598480225
1717002222789144300,8.051144287109375,-8.704264640808105,-4.757142066955566,-1.6623469591140747
1717002222798809600,8.0608095703125,-5.959815979003906,-1.5887136459350586,-2.235954999923706
1717002222808475100,8.07047509765625,-19.93566131591797,3.3164868354797363,-3.4243640899658203
1717002222818140700,8.080140625,-6.182218551635742,4.009448051452637,-0.286205530166626
1717002222827806000,8.089805908203125,0.5401599407196045,3.6212410926818848,0.6382113695144653
1717002222837471500,8.099471435546874,-3.230421304702759,7.097702980041504,2.512827157974243
1717002222847137000,8.109136962890625,2.6976418495178223,6.362318992614746,0.7601677775382996
1717002222856802300,8.11880224609375,0.7570156455039978,8.451095581054688,1.5926812887191772
1717002222866467800,8.1284677734375,0.6314005851745605,9.798531532287598,2.8168721199035645
1717002222876133000,8.138133056640624,5.053842067718506,10.173894882202148,3.195753335952759
1717002222885798700,8.147798583984375,5.7051615715026855,12.046113967895508,4.739943504333496
1717002222895464200,8.157464111328125,7.139341354370117,10.488798141479492,5.689407825469971
1717002222905129500,8.16712939453125,7.8081183433532715,10.56112003326416,5.158143520355225
1717002222914795000,8.176794921875,7.8188276290893555,10.69884967803955,4.7317094802856445
1717002222924460500,8.18646044921875,6.515732288360596,10.883440017700195,3.332719326019287
1717002222934125800,8.196125732421875,4.707701683044434,10.63582706451416,2.6104705333709717
1717002222943791400,8.205791259765626,2.225059747695923,10.175788879394531,0.9721450805664062
1717002222953457000,8.215456787109375,-5.294729709625244,10.246155738830566,-2.1051547527313232
1717002222963122200,8.2251220703125,-10.498940467834473,9.831068992614746,-3.801161766052246
1717002222972787700,8.23478759765625,-3.584644317626953,8.193334579467773,-3.425565242767334
1717002222982453000,8.244452880859376,1.0532069206237793,7.035834312438965,-3.3026418685913086
1717002222992118500,8.254118408203125,4.631837368011475,6.213326454162598,-3.6854820251464844
1717002223001784000,8.2637841796875,6.151856422424316,5.509792804718018,-4.203695297241211
1717002223011449300,8.273449462890625,6.91457462310791,4.738770008087158,-5.118869304656982
1717002223021115000,8.283114990234376,7.030282020568848,4.1048173904418945,-5.327221393585205
1717002223030780400,8.292780517578125,6.827277183532715,2.9984631538391113,-4.894534587860107
1717002223040445700,8.30244580078125,7.347051620483398,0.9773077964782715,-4.208895683288574
1717002223050111200,8.312111328125,6.286464691162109,-3.016301155090332,-5.17788028717041
1717002223059776500,8.321776611328126,3.2149100303649902,-9.55724811553955,-7.382114887237549
1717002223069442000,8.331442138671875,-23.102624893188477,-22.795021057128906,-5.271004676818848
1717002223079107600,8.341107666015626,-15.480012893676758,-27.454463958740234,-4.898868083953857
1717002223088772900,8.35077294921875,-4.921295166015625,-26.896808624267578,-4.618367671966553
1717002223098438400,8.3604384765625,2.810333013534546,-22.770191192626953,-2.4220681190490723
1717002223108104000,8.37010400390625,5.380794048309326,-16.460037231445312,0.9230518341064453
1717002223117769200,8.379769287109376,5.5756330490112305,-9.78481388092041,2.7588469982147217
1717002223127434800,8.389434814453125,4.35453462600708,-5.657957077026367,0.42406314611434937
1717002223137100000,8.39910009765625,2.635664701461792,-4.1814374923706055,-1.922323226928711
1717002223146765600,8.408765625,1.8756353855133057,-3.901639938354492,-3.36095929145813
1717002223156431000,8.41843115234375,1.863929033279419,-3.3153457641601562,-3.955681800842285
1717002223166096400,8.428096435546875,1.9623510837554932,-2.480544090270996,-3.2330374717712402
1717002223175762000,8.437761962890624,1.2195992469787598,-1.1198949813842773,-2.156907081604004
1717002223185427500,8.447427490234375,-0.22306132316589355,0.3052854537963867,-1.6433619260787964
1717002223195092700,8.4570927734375,-1.4572803974151611,1.6571803092956543,-1.326472282409668
1717002223204758300,8.46675830078125,-1.828455924987793,2.735499382019043,-0.036467790603637695
1717002223214423800,8.476423828125,-1.421426773071289,4.032225608825684,2.342465877532959
1717002223224089000,8.486089111328125,-1.3975279331207275,5.237792491912842,4.470686435699463
1717002223233754600,8.495754638671874,-0.11974751949310303,5.728182315826416,6.981247425079346
1717002223243420000,8.505419921875,1.731675148010254,6.130995273590088,7.922954559326172
1717002223253085400,8.51508544921875,2.935685634613037,7.082136631011963,8.228324890136719
1717002223262751000,8.5247509765625,4.166134834289551,7.284122467041016,7.463811874389648
1717002223272416300,8.534416259765624,3.9568302631378174,7.951493263244629,6.4561357498168945
1717002223282081800,8.544081787109375,2.9392337799072266,9.011039733886719,5.444265365600586
1717002223291747300,8.553747314453124,2.065502643585205,9.540383338928223,4.575510501861572
1717002223301412600,8.56341259765625,1.0654819011688232,10.056415557861328,4.097434043884277
1717002223311078100,8.573078125,-1.316988468170166,10.431782722473145,3.6043925285339355
1717002223320743400,8.582743408203125,-7.818398475646973,10.428380966186523,3.2443323135375977
1717002223330409000,8.592408935546874,-5.960948944091797,9.555880546569824,2.813429594039917
1717002223340074500,8.602074462890625,-2.3363196849823,9.18321418762207,1.6870843172073364
1717002223349739800,8.61173974609375,-1.1957576274871826,9.550263404846191,0.7390780448913574
1717002223359405300,8.6214052734375,-15.411605834960938,11.20364761352539,-3.063565731048584
1717002223369070800,8.63107080078125,-15.991145133972168,9.558481216430664,-7.40395450592041
1717002223378736000,8.640736083984375,-7.846228122711182,4.4989752769470215,-7.011584281921387
1717002223388401700,8.650401611328125,0.16611802577972412,1.1998567581176758,-5.1242780685424805
1717002223398067200,8.660067138671875,2.2590317726135254,-2.1518049240112305,-6.165862083435059
1717002223407732500,8.669732421875,2.567290782928467,-5.408331871032715,-8.736859321594238
1717002223417398000,8.67939794921875,1.141294002532959,-8.658946990966797,-10.678756713867188
1717002223427063600,8.6890634765625,0.21835041046142578,-13.71354866027832,-11.434589385986328
1717002223436728800,8.698728759765626,2.5294370651245117,-16.188068389892578,-9.214048385620117
1717002223446394400,8.708394287109375,5.741586685180664,-15.569476127624512,-6.318179130554199
1717002223456059600,8.7180595703125,6.1487884521484375,-15.21225357055664,-3.428295135498047
1717002223465725200,8.72772509765625,5.384605407714844,-14.787675857543945,-0.7981886863708496
1717002223475390700,8.737390625,5.152028560638428,-14.700533866882324,0.6792960166931152
1717002223485056000,8.747055908203125,4.433282375335693,-14.71588134765625,0.4704742431640625
1717002223494721500,8.756721435546876,2.782388925552368,-15.52078914642334,-0.6869745254516602
1717002223504387000,8.766386962890625,-1.0218790769577026,-14.402088165283203,-1.5748271942138672
1717002223514052400,8.77605224609375,-5.527000904083252,-13.636667251586914,-1.6219592094421387
1717002223523718000,8.7857177734375,-5.212388515472412,-11.281519889831543,-1.961789608001709
1717002223533383200,8.795383056640626,-5.172472953796387,-8.49363899230957,-2.4039840698242188
1717002223543048700,8.805048583984375,-6.868867874145508,-5.3501482009887695,-2.8893609046936035
1717002223552714200,8.81471435546875,-7.990984916687012,-2.309946060180664,-3.8204970359802246
1717002223562379500,8.824379638671875,-7.635814189910889,-0.39062023162841797,-4.527897357940674
1717002223572045000,8.834045166015626,-6.515681266784668,0.7064390182495117,-4.206712245941162
1717002223581710600,8.843710693359375,-5.675169944763184,2.1142516136169434,-3.1092281341552734
1717002223591376000,8.8533759765625,-5.722033500671387,4.095323085784912,-1.5747380256652832
1717002223601041400,8.86304150390625,-5.600008010864258,6.570614814758301,0.6832547187805176
1717002223610707000,8.87270703125,-4.954566955566406,6.129705429077148,3.1538028717041016
1717002223620372200,8.882372314453125,-3.565929889678955,6.054577827453613,5.269413948059082
1717002223630037800,8.892037841796874,-2.066464424133301,6.327298641204834,7.310646057128906
1717002223639703300,8.901703369140625,-2.5786049365997314,6.841021537780762,9.158517837524414
1717002223649368600,8.91136865234375,-3.089418649673462,7.114076137542725,10.932923316955566
1717002223659034000,8.9210341796875,-2.974493980407715,6.273411273956299,11.614395141601562
1717002223668699400,8.930699462890624,-2.112767457962036,5.068922996520996,10.093149185180664
1717002223678365000,8.940364990234375,0.004229068756103516,4.574487209320068,6.67009162902832
1717002223688030500,8.950030517578124,2.6990549564361572,4.658532619476318,3.4847118854522705
1717002223697695700,8.95969580078125,4.693394184112549,5.085972785949707,1.1801962852478027
1717002223707361300,8.969361328125,5.863339424133301,6.093091011047363,-0.3596620559692383
1717002223717026800,8.97902685546875,6.435521602630615,7.182515621185303,-1.2968418598175049
1717002223726692000,8.988692138671874,6.746654510498047,8.167076110839844,-1.75711989402771
1717002223736357600,8.998357666015625,6.8425445556640625,8.998270988464355,-2.155904531478882
1717002223746023000,9.00802294921875,6.705016136169434,9.491318702697754,-2.586639642715454
1717002223755688400,9.0176884765625,6.614938735961914,8.842082977294922,-2.916116714477539
1717002223765354000,9.02735400390625,6.338066101074219,6.773266792297363,-3.5985803604125977
1717002223775019300,9.037019287109375,5.794913291931152,4.902917385101318,-4.920350074768066
1717002223784684800,9.046684814453124,5.158470153808594,3.3398303985595703,-6.400234222412109
1717002223794350300,9.056350341796875,4.104711055755615,1.1924066543579102,-7.284769058227539
1717002223804015600,9.066015625,1.6307244300842285,-1.8344411849975586,-7.018922328948975
1717002223813681200,9.07568115234375,-3.0187878608703613,-5.817470073699951,-6.028367042541504
1717002223823346700,9.0853466796875,-9.32421588897705,-10.846394538879395,-4.286846160888672
1717002223833012000,9.095011962890625,-12.2384033203125,-14.755681991577148,-2.052960157394409
1717002223842677500,9.104677490234375,-10.100221633911133,-15.88272476196289,-0.2509899139404297
1717002223852343000,9.114343017578125,-5.55470609664917,-14.291447639465332,0.6490287780761719
1717002223862008300,9.12400830078125,-1.1113300323486328,-10.716909408569336,0.6191525459289551
1717002223871673900,9.133673828125,1.7389202117919922,-7.399284839630127,0.21019864082336426
1717002223881339100,9.143339111328125,2.6070141792297363,-4.948451995849609,-0.47496485710144043
1717002223891004700,9.153004638671876,1.8322982788085938,-3.235672950744629,-1.1203291416168213
1717002223900670200,9.162670166015625,0.9090938568115234,-2.3659043312072754,-1.1424474716186523
1717002223910335500,9.17233544921875,0.715639591217041,-2.1284475326538086,-1.5362424850463867
1717002223920001000,9.1820009765625,1.2566630840301514,-2.3371620178222656,-1.2462739944458008
1717002223929666600,9.19166650390625,1.838602066040039,-2.457233428955078,-0.6337382793426514
1717002223939331800,9.201331787109375,1.45346999168396,-3.1439380645751953,-0.6474249362945557
1717002223948997400,9.210997314453126,0.4901919364929199,-4.213838577270508,-2.1299705505371094
1717002223958662700,9.22066259765625,0.11567521095275879,-5.157121658325195,-4.460568428039551
1717002223968328200,9.230328125,0.4083824157714844,-4.516841888427734,-4.645909309387207
1717002223977993700,9.23999365234375,0.33153200149536133,-2.577298164367676,-3.1305923461914062
1717002223987659000,9.249658935546876,-0.04752230644226074,0.2265005111694336,-0.9312136173248291
1717002223997324500,9.259324462890625,-0.6193749904632568,2.568349838256836,0.7541790008544922
1717002224006990000,9.268989990234376,-1.1267733573913574,4.090284824371338,2.7593863010406494
1717002224016655400,9.2786552734375,-0.9936602115631104,4.780407428741455,4.797616004943848
1717002224026321000,9.28832080078125,-0.3789048194885254,4.649987697601318,5.627041816711426
1717002224035986200,9.297986083984375,0.6699391007423401,4.714750289916992,5.480364799499512
1717002224045651700,9.307651611328126,2.6819396018981934,5.241756439208984,4.511688232421875
1717002224055317200,9.317317138671875,4.145205020904541,6.336631774902344,3.705104351043701
1717002224064982500,9.326982421875,3.5590896606445312,7.236376762390137,3.899259567260742
1717002224074648000,9.33664794921875,-0.8349345922470093,8.256327629089355,4.466095924377441
1717002224084313600,9.346313720703124,-4.656122207641602,8.698041915893555,4.144833564758301
1717002224093979000,9.355978759765625,-2.922445774078369,8.143016815185547,3.110588550567627
1717002224103644400,9.36564453125,0.9250442981719971,7.616461277008057,1.779982328414917
1717002224113310000,9.37531005859375,2.88493275642395,7.403683662414551,1.0575363636016846
1717002224122975200,9.384975341796874,2.727102041244507,7.069791793823242,0.7129249572753906
1717002224132640800,9.394640869140625,-10.63518238067627,7.313308238983154,1.0643765926361084
1717002224142306300,9.404306396484374,-39.21661376953125,10.208951950073242,3.0782217979431152
1717002224151971600,9.4139716796875,-5.455421447753906,7.215642929077148,1.9736648797988892
1717002224161637000,9.42363720703125,5.8463053703308105,0.2230510711669922,-1.8418116569519043
1717002224171302700,9.433302734375,6.497950553894043,-4.919740676879883,-4.044619560241699
1717002224180968000,9.442968017578124,4.205921173095703,-9.053685188293457,-5.351265907287598
1717002224190633500,9.452633544921875,-8.076042175292969,-12.546038627624512,-5.906700134277344
1717002224200298800,9.462298828125,0.5406738519668579,-13.636584281921387,-6.329190731048584
1717002224209964300,9.47196435546875,7.489967346191406,-13.549168586730957,-6.574629783630371
1717002224219629800,9.4816298828125,7.927647590637207,-13.328788757324219,-6.005096435546875
1717002224229295000,9.491295166015625,6.334254264831543,-12.947128295898438,-5.496196746826172
1717002224238960600,9.500960693359374,1.6793290376663208,-11.789201736450195,-4.1120781898498535
1717002224248626200,9.510626220703125,-1.4713423252105713,-10.199161529541016,-3.2147064208984375
1717002224258291500,9.52029150390625,1.9057304859161377,-9.213601112365723,-2.4496264457702637
1717002224267957000,9.52995703125,1.3706295490264893,-7.363509178161621,-1.3894355297088623
1717002224277622300,9.539622314453124,-3.009420871734619,-5.298994064331055,-0.37642502784729004
1717002224287287800,9.549287841796875,-4.0886945724487305,-4.230896949768066,0.97601318359375
1717002224296953300,9.558953369140625,-2.6757328510284424,-3.923985481262207,2.4296140670776367
1717002224306618600,9.56861865234375,-3.1173486709594727,-4.0530500411987305,3.1136603355407715
1717002224316284200,9.5782841796875,-4.559722900390625,-3.856411933898926,2.55422306060791
1717002224325949700,9.58794970703125,-5.102435111999512,-2.7299747467041016,1.3897171020507812
1717002224335615000,9.597614990234375,-4.528697490692139,-1.030512809753418,0.4286532402038574
1717002224345280500,9.607280517578126,-2.8962478637695312,0.7621870040893555,0.13107895851135254
1717002224354946000,9.616946044921875,-1.7951710224151611,2.7463769912719727,0.28704214096069336
1717002224364611300,9.626611328125,-1.3256868124008179,4.519456386566162,0.8856277465820312
1717002224374276900,9.63627685546875,-1.4043688774108887,5.833993911743164,1.780595302581787
1717002224383942400,9.6459423828125,-2.3381948471069336,7.130838871002197,2.967135190963745
1717002224393607700,9.655607666015625,-3.013493537902832,8.270841598510742,4.324886322021484
1717002224403273200,9.665273193359376,-1.6548691987991333,8.850364685058594,6.3571929931640625
1717002224412938500,9.6749384765625,1.0893726348876953,8.274853706359863,8.78393268585205
1717002224422604000,9.68460400390625,3.7624857425689697,7.076352119445801,10.028645515441895
1717002224432269600,9.69426953125,5.306277275085449,6.122040748596191,10.071730613708496
1717002224441934800,9.703934814453126,5.336126327514648,5.789963245391846,9.055464744567871
1717002224451600400,9.713600341796875,4.866632461547852,5.975174427032471,7.072500705718994
1717002224461266000,9.723265869140626,1.1058181524276733,9.047070503234863,5.535004615783691
1717002224470931200,9.73293115234375,2.2917587757110596,9.286458969116211,3.200777292251587
1717002224480596700,9.7425966796875,4.865453720092773,8.460250854492188,0.8637763261795044
1717002224490262000,9.752261962890625,8.621795654296875,8.168749809265137,-1.0117435455322266
1717002224499927600,9.761927490234376,6.224195957183838,8.769205093383789,-2.632395029067993
1717002224509593000,9.771593017578125,-2.717963218688965,9.369260787963867,-4.61151123046875
1717002224519258400,9.78125830078125,-8.853057861328125,8.83967399597168,-6.315565586090088
1717002224528924000,9.790923828125,-2.9693336486816406,7.2443952560424805,-4.837220191955566
1717002224538589400,9.80058935546875,0.03485393524169922,5.460686206817627,-4.427111625671387
1717002224548254700,9.810254638671875,1.800611972808838,3.4498062133789062,-4.489012718200684
1717002224557920300,9.819920166015624,2.373533010482788,1.6554579734802246,-4.576164245605469
1717002224567585800,9.829585693359375,1.569525957107544,0.032047271728515625,-4.337103366851807
1717002224577251000,9.8392509765625,0.025700092315673828,-2.0467662811279297,-4.068484783172607
1717002224586916600,9.84891650390625,-1.424790382385254,-4.136105537414551,-3.4942305088043213
1717002224596582100,9.85858203125,-3.857771873474121,-8.111486434936523,-3.615863561630249
1717002224606247400,9.868247314453125,-6.70232629776001,-13.801423072814941,-3.9852046966552734
1717002224615913000,9.877912841796874,-5.974431991577148,-18.521541595458984,-3.4289135932922363
1717002224625578500,9.88757861328125,-4.278935432434082,-19.887500762939453,-1.5318756103515625
1717002224635243800,9.897243896484374,-3.029812812805176,-20.04369354248047,-0.4203246831893921
1717002224644909300,9.906909423828125,-1.3029232025146484,-18.415897369384766,0.38208258152008057
1717002224654574600,9.91657470703125,-0.9194936752319336,-15.526320457458496,-0.548056960105896
1717002224664240000,9.926240234375,-0.6219182014465332,-12.411892890930176,-1.5896176099777222
1717002224673905700,9.93590576171875,-0.08495616912841797,-10.080192565917969,-2.5409884452819824
1717002224683571000,9.945571044921875,0.39740562438964844,-8.545086860656738,-2.9854278564453125
1717002224693236500,9.955236572265624,0.6437544822692871,-7.101822853088379,-2.886416435241699
1717002224702902000,9.964902099609375,0.9557313919067383,-5.694979667663574,-3.0332252979278564
1717002224712567300,9.9745673828125,0.6853024959564209,-3.8288516998291016,-2.9432711601257324
1717002224722232800,9.98423291015625,0.051455020904541016,-1.7802000045776367,-3.0049962997436523
1717002224731898000,9.993898193359374,-2.261720895767212,1.7080707550048828,-2.730073928833008
1717002224741563600,10.003563720703125,-2.850060224533081,3.281114101409912,-2.9529976844787598
1717002224751229200,10.013229248046875,-1.685288906097412,3.913891315460205,-3.0764946937561035
1717002224760894500,10.02289453125,-0.9446182250976562,5.113842487335205,-2.4924044609069824
1717002224770560000,10.03256005859375,-1.2054831981658936,6.735971927642822,-1.2349140644073486
1717002224780225500,10.0422255859375,-0.5907790660858154,8.427473068237305,0.24312293529510498
1717002224789890800,10.051890869140625,1.8373334407806396,9.695191383361816,1.5696232318878174
1717002224799556400,10.061556396484375,4.939441204071045,10.783982276916504,3.4297518730163574
1717002224809222000,10.071221923828125,7.2892608642578125,11.647430419921875,7.332447528839111
1717002224818887200,10.08088720703125,8.392760276794434,12.233724594116211,9.691080093383789
1717002224828552700,10.090552734375,8.836009979248047,12.866392135620117,12.121559143066406
1717002224838218200,10.10021826171875,7.830325126647949,12.881575584411621,12.496241569519043
1717002224847883500,10.109883544921875,5.708486557006836,11.896649360656738,11.03738021850586
1717002224857549000,10.119549072265626,4.084868431091309,10.657268524169922,8.867713928222656
1717002224867214600,10.129214599609375,3.710798740386963,9.765899658203125,6.592424392700195
1717002224876880000,10.1388798828125,2.9622673988342285,8.9445161819458,3.8629791736602783
1717002224886545400,10.14854541015625,2.387172222137451,7.8723626136779785,1.0614248514175415
1717002224896210700,10.158210693359376,2.18454647064209,7.296346664428711,-0.7054518461227417
1717002224905876200,10.167876220703125,2.158057689666748,6.54804801940918,-1.6970150470733643
1717002224915541800,10.177541748046876,2.2353098392486572,5.276185512542725,-3.3673925399780273
1717002224925207000,10.18720703125,1.8567512035369873,2.882143497467041,-5.918224811553955
1717002224934872600,10.19687255859375,-16.874542236328125,-1.789097785949707,-14.909324645996094
1717002224944538000,10.2065380859375,-8.136716842651367,-7.415714263916016,-14.869388580322266
1717002224954203400,10.216203369140626,-1.555238127708435,-11.147956848144531,-13.816871643066406
1717002224963869000,10.225868896484375,-4.656494140625,-15.741064071655273,-15.708434104919434
1717002224973534500,10.235534423828126,-1.9575951099395752,-16.89596939086914,-13.44260311126709
1717002224983199700,10.24519970703125,-1.6743354797363281,-14.016820907592773,-8.070977210998535
1717002224992865300,10.254865234375,-0.26539063453674316,-9.80511474609375,-4.78311824798584
1717002225002530600,10.264530517578125,2.2777929306030273,-6.876119613647461,-3.860816240310669
1717002225012196000,10.274196044921876,3.187978744506836,-6.978837013244629,-3.0660088062286377
1717002225021861600,10.283861572265625,3.7940502166748047,-9.073731422424316,-2.9611923694610596
1717002225031527000,10.29352685546875,5.124205112457275,-11.229875564575195,-1.794215202331543
1717002225041192400,10.3031923828125,1.8696529865264893,-13.003120422363281,-1.35359787940979
1717002225050858000,10.31285791015625,-0.18458855152130127,-14.247036933898926,-1.108318567276001
1717002225060523300,10.322523193359375,-2.0512261390686035,-14.888707160949707,-0.7261576652526855
1717002225070188800,10.332188720703124,-3.598193407058716,-14.148662567138672,-0.06277823448181152
1717002225079854300,10.341854248046875,-5.47784948348999,-11.83504581451416,0.755629301071167
1717002225089519600,10.35151953125,-11.183268547058105,-8.150311470031738,0.9314000606536865
1717002225099185200,10.36118505859375,-12.0153226852417,-4.073638916015625,-0.10231304168701172
1717002225108850700,10.3708505859375,-7.093005180358887,-1.2309417724609375,-0.9164924621582031
1717002225118516000,10.380515869140625,-3.33774995803833,0.7777090072631836,-1.5870306491851807
1717002225128181500,10.390181396484374,-2.234005928039551,3.063732147216797,-1.9607603549957275
1717002225137847000,10.399846923828125,-2.9131033420562744,5.427676677703857,-2.08556866645813
1717002225147512300,10.40951220703125,-3.982497453689575,7.579516887664795,-1.736699104309082
1717002225157177900,10.419177734375,-4.553966999053955,9.308887481689453,-1.0802910327911377
1717002225166843100,10.428843017578124,-4.571865081787109,10.558075904846191,0.21422266960144043
1717002225176508700,10.4385087890625,-3.994074821472168,11.017577171325684,2.5309252738952637
1717002225186174200,10.44817431640625,-2.2046873569488525,10.327360153198242,5.135659217834473
1717002225195839500,10.457839599609375,0.8901863098144531,9.109655380249023,5.91043758392334
1717002225205505000,10.467505126953125,3.844820976257324,8.229194641113281,5.367588996887207
1717002225215170600,10.477170654296875,5.723763465881348,7.822106838226318,4.418361186981201
1717002225224835800,10.4868359375,6.759116172790527,7.636154651641846,3.5150346755981445
1717002225234501400,10.49650146484375,7.483468055725098,7.875901222229004,2.3806333541870117
1717002225244167000,10.5061669921875,7.48709774017334,8.23033618927002,1.2843958139419556
1717002225253832200,10.515832275390625,7.133291244506836,8.547196388244629,0.7096535563468933
1717002225263497700,10.525497802734375,6.52736234664917,8.720921516418457,-0.20329728722572327
1717002225273163000,10.5351630859375,5.602511405944824,8.88764476776123,-1.7542202472686768
1717002225282828500,10.54482861328125,4.720256328582764,8.551344871520996,-3.0327956676483154
1717002225292494000,10.554494140625,4.22963285446167,7.0175557136535645,-3.5184717178344727
1717002225302159400,10.564159423828125,3.9224441051483154,5.357905387878418,-3.6713685989379883
1717002225311825000,10.573824951171876,3.8101367950439453,3.870647430419922,-3.438479423522949
1717002225321490400,10.583490478515625,3.6959762573242188,2.140357494354248,-2.9848549365997314
1717002225331155700,10.59315576171875,2.5000579357147217,-0.4497666358947754,-2.19120454788208
1717002225340821200,10.6028212890625,-3.1384243965148926,-5.230503082275391,-2.129988193511963
1717002225350486800,10.61248681640625,-10.028366088867188,-13.458015441894531,-1.721198320388794
1717002225360152000,10.622152099609375,-11.363237380981445,-20.989702224731445,-1.6457420587539673
1717002225369817600,10.631817626953126,-8.424810409545898,-23.275386810302734,-0.3341052532196045
1717002225379483100,10.641483154296875,-4.4258904457092285,-19.559772491455078,2.110914945602417
1717002225389148400,10.6511484375,-1.0793967247009277,-13.529430389404297,3.506989002227783
1717002225398814000,10.66081396484375,1.3929486274719238,-9.197359085083008,3.009711742401123
1717002225408479500,10.6704794921875,2.17192006111145,-6.493783473968506,1.5239182710647583
1717002225418144800,10.680144775390625,1.9177887439727783,-4.483952522277832,-0.07613617181777954
1717002225427810300,10.689810302734376,1.2623491287231445,-3.07071590423584,-1.4709734916687012
1717002225437475600,10.6994755859375,0.6800775527954102,-2.3523521423339844,-2.2484867572784424
1717002225447141000,10.70914111328125,0.4087533950805664,-2.8977699279785156,-1.7864840030670166
1717002225456806700,10.718806640625,-0.08620071411132812,-3.6760435104370117,-0.8646141290664673
1717002225466472000,10.728471923828126,-1.0753192901611328,-4.330286979675293,-0.2381528615951538
1717002225476137500,10.738137451171875,-1.785874843597412,-4.451261520385742,-0.021804213523864746
1717002225485803000,10.747802978515624,-1.5348186492919922,-3.7759084701538086,0.07004714012145996
1717002225495468300,10.75746826171875,-0.0018854141235351562,-2.487497329711914,0.5746865272521973
1717002225505133800,10.7671337890625,1.262110710144043,-0.7382469177246094,1.3293216228485107
1717002225514799400,10.77679931640625,2.4565205574035645,1.41670560836792,1.9998788833618164
1717002225524464600,10.786464599609374,3.3838908672332764,3.511538028717041,2.9083807468414307
1717002225534130200,10.796130126953125,4.365172386169434,5.075544357299805,4.0391011238098145
1717002225543795500,10.80579541015625,4.914024829864502,6.372613430023193,4.882195472717285
1717002225553461000,10.8154609375,4.7433366775512695,7.417509078979492,5.055691242218018
1717002225563126500,10.82512646484375,4.428529739379883,8.183106422424316,4.676196575164795
1717002225572791800,10.834791748046875,4.103638648986816,8.92065715789795,4.388363361358643
1717002225582457300,10.844457275390624,4.056582450866699,9.505571365356445,4.117588043212891
1717002225592123000,10.854122802734375,4.33721923828125,9.802847862243652,3.4824466705322266
1717002225601788200,10.8637880859375,3.8216822147369385,9.929494857788086,2.6604933738708496
1717002225611453700,10.87345361328125,2.858508586883545,9.974824905395508,1.8196786642074585
1717002225621119200,10.883119140625,1.9336897134780884,9.974109649658203,1.295961618423462
1717002225630784500,10.892784423828125,0.9860398769378662,10.014300346374512,0.9530059099197388
1717002225640450000,10.902449951171874,-21.769126892089844,10.211735725402832,-0.980608344078064
1717002225650115600,10.912115478515625,-15.210081100463867,10.124216079711914,-2.517329454421997
1717002225659780900,10.92178076171875,-6.59190559387207,9.459185600280762,-1.9691417217254639
1717002225669446400,10.9314462890625,-2.6633667945861816,7.559335231781006,-5.057847023010254
1717002225679112000,10.94111181640625,0.6624867916107178,6.685368537902832,-7.763009548187256
1717002225688777200,10.950777099609375,-1.914090633392334,4.127087116241455,-9.06497859954834
1717002225698442800,10.96044287109375,-2.8489911556243896,-0.2612438201904297,-8.51041030883789
1717002225708108300,10.9701083984375,-1.3509149551391602,-4.048828125,-5.805905342102051
1717002225717773600,10.979773681640625,0.8299329280853271,-5.636343002319336,-5.255955696105957
1717002225727439000,10.989439208984376,2.606137752532959,-7.257020950317383,-5.773860931396484
1717002225737104400,10.9991044921875,0.5542943477630615,-10.748869895935059,-6.080060958862305
1717002225746770000,11.00877001953125,0.5814070701599121,-14.443866729736328,-6.117995262145996
1717002225756435500,11.018435546875,4.023312091827393,-14.689122200012207,-5.179530143737793
1717002225766100700,11.028100830078126,4.643963813781738,-15.320472717285156,-4.140879154205322
1717002225775766300,11.037766357421875,4.310092449188232,-15.848137855529785,-3.217559576034546
1717002225785431800,11.047431884765626,4.459999084472656,-16.103525161743164,-3.1749422550201416
1717002225795097000,11.05709716796875,3.8363687992095947,-16.88458251953125,-3.297686815261841
1717002225804762600,11.0667626953125,2.4319636821746826,-17.509828567504883,-2.8413569927215576
1717002225814428200,11.07642822265625,-0.3945584297180176,-17.17293930053711,-2.086937665939331
1717002225824093400,11.086093505859376,-4.069631576538086,-15.073073387145996,-1.090778112411499
1717002225833759000,11.095759033203125,-6.451605796813965,-11.694010734558105,-0.378126859664917
1717002225843424300,11.10542431640625,-6.30247163772583,-7.936629295349121,-0.5830092430114746
1717002225853089800,11.11508984375,-5.747161865234375,-4.013001441955566,-1.6520190238952637
1717002225862755300,11.12475537109375,-4.90619421005249,-0.7106399536132812,-2.9901123046875
1717002225872420600,11.134420654296875,-2.9007010459899902,1.5340709686279297,-3.5644612312316895
1717002225882086100,11.144086181640626,-0.7483279705047607,3.416421890258789,-3.106445789337158
1717002225891751700,11.153751708984375,0.4832439422607422,5.3469390869140625,-2.2519021034240723
1717002225901417000,11.1634169921875,0.27715814113616943,7.625739097595215,-1.2098865509033203
1717002225911082500,11.17308251953125,-1.3913078308105469,10.0901517868042,0.0770108699798584
1717002225920748000,11.182748046875,-3.4908182621002197,12.011990547180176,1.1276109218597412
1717002225930413300,11.192413330078125,-4.832986831665039,13.025518417358398,2.9226088523864746
1717002225940078800,11.202078857421874,-5.38004207611084,12.788168907165527,7.153655052185059
1717002225949744400,11.211744384765625,-3.8889520168304443,11.018783569335938,10.37938404083252
1717002225959409700,11.22140966796875,-0.32091498374938965,9.414306640625,10.701386451721191
1717002225969075200,11.2310751953125,2.147007703781128,7.39309024810791,8.452644348144531
1717002225978740700,11.24074072265625,2.1426634788513184,5.881826877593994,6.471308708190918
1717002225988406000,11.250406005859375,1.8423867225646973,5.226962089538574,4.669460296630859
1717002225998071600,11.260071533203124,1.8520138263702393,5.117925643920898,2.6976876258850098
1717002226007736800,11.26973681640625,3.1250786781311035,6.183246612548828,0.9921256303787231
1717002226017402400,11.27940234375,4.505511283874512,7.455608367919922,-0.0035698413848876953
1717002226027068000,11.28906787109375,5.865982532501221,8.319169998168945,-1.160365104675293
1717002226036733200,11.298733154296874,7.4814252853393555,8.478962898254395,-2.532453775405884
1717002226046398700,11.308398681640625,8.815584182739258,7.925372123718262,-3.430555820465088
1717002226056064300,11.318064208984374,9.163849830627441,5.948915481567383,-3.7226505279541016
1717002226065729500,11.3277294921875,9.213151931762695,4.354940414428711,-3.556183099746704
1717002226075395000,11.33739501953125,9.287912368774414,2.958136558532715,-3.21970272064209
1717002226085060600,11.347060546875,9.17072582244873,1.4554634094238281,-2.8644206523895264
1717002226094726000,11.356725830078124,8.612788200378418,-0.6885786056518555,-3.261037588119507
1717002226104391400,11.366391357421875,7.403687953948975,-3.2161221504211426,-4.051514625549316
1717002226114057000,11.376056884765624,-7.025257587432861,-8.483190536499023,-4.4790496826171875
1717002226123722200,11.38572216796875,-15.211872100830078,-15.650592803955078,-4.663366317749023
1717002226133387800,11.3953876953125,-10.63659381866455,-18.117473602294922,-4.389254093170166
1717002226143053000,11.405052978515625,-6.90305233001709,-17.310630798339844,-1.1172640323638916
1717002226152718600,11.414718505859375,-3.9578704833984375,-14.236244201660156,2.7786107063293457
1717002226162384100,11.424384033203125,-2.6353697776794434,-11.552810668945312,3.4821972846984863
1717002226172049400,11.43404931640625,-2.3054065704345703,-9.828544616699219,1.1104023456573486
1717002226181715000,11.44371484375,-1.2107934951782227,-8.739639282226562,-1.362671136856079
1717002226191380500,11.45338037109375,0.22476863861083984,-8.362040519714355,-2.813265323638916
1717002226201045800,11.463045654296875,1.1957118511199951,-8.515535354614258,-3.081704616546631
1717002226210711300,11.472711181640625,1.0715501308441162,-8.650432586669922,-3.515998125076294
1717002226220376800,11.482376953125,0.5271835327148438,-8.01419448852539,-3.489717483520508
1717002226230042000,11.4920419921875,-0.3410372734069824,-6.981051445007324,-3.158114194869995
1717002226239707600,11.501707763671876,-0.5161716938018799,-5.5512495040893555,-2.7394096851348877
1717002226249373200,11.511373291015625,0.20100045204162598,-3.656966209411621,-1.8372936248779297
1717002226259038500,11.52103857421875,1.5820367336273193,-1.4424104690551758,-0.2633063793182373
1717002226268704000,11.5307041015625,2.9725773334503174,0.6942996978759766,1.2970364093780518
1717002226278369500,11.54036962890625,3.93400239944458,2.626072406768799,2.3782291412353516
1717002226288034800,11.550034912109375,4.4581098556518555,4.287272930145264,2.9420762062072754
1717002226297700400,11.559700439453126,4.733259201049805,5.8772172927856445,3.3081846237182617
1717002226307366000,11.569365966796875,4.493305683135986,7.126673698425293,3.3807027339935303
1717002226317031200,11.57903125,3.727203369140625,7.680537223815918,3.4040966033935547
1717002226326696700,11.58869677734375,2.8411684036254883,7.478166580200195,3.293710470199585
1717002226336362000,11.598362060546876,2.164219379425049,7.112451553344727,2.8141369819641113
1717002226346027500,11.608027587890625,1.359828233718872,7.261582851409912,2.623199224472046
1717002226355693000,11.617693115234376,-0.010608911514282227,7.644328594207764,2.146730899810791
1717002226365358300,11.6273583984375,-4.449869632720947,8.571094512939453,1.8056659698486328
1717002226375023900,11.63702392578125,-13.93990421295166,10.478715896606445,1.4667761325836182
1717002226384689400,11.646689453125,-24.210952758789062,12.638187408447266,-1.316481113433838
1717002226394354700,11.656354736328124,-20.25043296813965,11.881340026855469,-3.811147689819336
1717002226404020200,11.666020263671875,-6.535503387451172,10.542037963867188,-3.263139486312866
1717002226413685800,11.675685791015624,1.76742422580719,10.696906089782715,-2.3953278064727783
1717002226423351000,11.68535107421875,5.992096424102783,9.968963623046875,-2.5032410621643066
1717002226433016600,11.6950166015625,6.716570854187012,7.9539899826049805,-2.597756862640381
1717002226442681900,11.704681884765625,6.123970031738281,5.628288269042969,-3.090400218963623
1717002226452347400,11.714347412109374,3.5088982582092285,3.7556424140930176,-3.0182738304138184
1717002226462013000,11.724012939453125,1.5136475563049316,1.7085037231445312,-1.4044806957244873
1717002226471678200,11.73367822265625,-1.9326376914978027,-2.5165014266967773,-2.0349061489105225
1717002226481343700,11.74334375,-4.445179462432861,-6.692012786865234,-3.063903331756592
1717002226491009300,11.75300927734375,-11.62925910949707,-11.840764045715332,-3.671900749206543
1717002226500674600,11.762674560546875,-16.786163330078125,-15.211745262145996,-3.507472038269043
1717002226510340000,11.772340087890624,-6.62105655670166,-13.16899299621582,-3.4617440700531006
1717002226520005600,11.782005615234375,1.8136321306228638,-8.649765968322754,-3.4666342735290527
1717002226529671000,11.7916708984375,6.435302734375,-5.536242485046387,-4.540281295776367
1717002226539336400,11.80133642578125,8.508161544799805,-5.875687599182129,-5.258931636810303
1717002226549002000,11.811001953125,10.396625518798828,-7.637423515319824,-5.7366838455200195
1717002226558667300,11.820667236328125,11.9393892288208,-9.648550033569336,-6.365050792694092
1717002226568332800,11.830332763671874,10.358564376831055,-11.426376342773438,-6.348519325256348
1717002226577998300,11.839998291015625,7.498730182647705,-12.56879711151123,-5.29871940612793
1717002226587663600,11.84966357421875,5.026769638061523,-13.405705451965332,-4.601222038269043
1717002226597329200,11.8593291015625,3.1824300289154053,-13.773932456970215,-3.3881373405456543
1717002226606994700,11.86899462890625,0.9959843158721924,-14.212441444396973,-2.0816025733947754
1717002226616660000,11.878659912109375,-2.477778911590576,-13.988016128540039,-1.0947585105895996
1717002226626325500,11.888325439453125,-7.270780563354492,-12.009920120239258,-0.8413558006286621
1717002226635991000,11.897990966796876,-14.175643920898438,-7.5629730224609375,-2.642810821533203
1717002226645656300,11.90765625,-5.784852027893066,-3.6527585983276367,-3.009117841720581
1717002226655321900,11.91732177734375,0.770990252494812,-1.4449691772460938,-2.4736087322235107
1717002226664987100,11.926987060546875,2.3437204360961914,0.4162445068359375,-2.6909234523773193
1717002226674652700,11.936652587890626,1.2211191654205322,2.691682815551758,-2.5031375885009766
1717002226684318200,11.946318115234375,-1.9251861572265625,5.583428382873535,-1.9079558849334717
1717002226693983500,11.9559833984375,-5.814938545227051,8.380271911621094,-1.2582039833068848
1717002226703649000,11.96564892578125,-7.339818477630615,10.046255111694336,-0.2836432456970215
1717002226713314600,11.975314453125,-6.808265686035156,11.246596336364746,2.1378438472747803
1717002226722979800,11.984979736328125,-5.125850677490234,12.182373046875,5.703442096710205
1717002226732645400,11.994645263671876,-3.9611549377441406,11.75485610961914,9.045694351196289
1717002226742311000,12.004310791015625,-3.0504519939422607,10.439288139343262,9.867507934570312
1717002226751976200,12.01397607421875,-1.300666332244873,8.66545295715332,8.373035430908203
1717002226761641700,12.023641845703125,1.4089021682739258,6.924648284912109,6.153156757354736
1717002226771307000,12.03330712890625,3.373922348022461,5.843082427978516,4.4673967361450195
1717002226780972500,12.04297265625,4.5092597007751465,5.6054534912109375,3.0755362510681152
1717002226790638000,12.05263818359375,4.956995964050293,6.2505292892456055,2.0079944133758545
1717002226800303600,12.0623037109375,5.682715892791748,7.175285339355469,0.9605395793914795
1717002226809969000,12.071968994140626,6.995726585388184,7.896399974822998,-0.21597814559936523
1717002226819634400,12.081634521484375,8.341248512268066,8.282048225402832,-1.181495189666748
1717002226829300000,12.091300048828124,9.486589431762695,8.496211051940918,-1.9794049263000488
1717002226838965200,12.10096533203125,10.104287147521973,8.523637771606445,-2.4806900024414062
1717002226848630800,12.110630859375,9.873552322387695,7.62613582611084,-2.419985771179199
1717002226858296000,12.120296142578125,8.847572326660156,6.066042900085449,-2.1629292964935303
1717002226867961600,12.129961669921874,8.142097473144531,5.15544319152832,-2.084609031677246
1717002226877627100,12.139627197265625,7.669408798217773,4.040374755859375,-2.194837808609009
1717002226887292400,12.14929248046875,7.24619197845459,2.5774903297424316,-2.379464864730835
1717002226896958000,12.1589580078125,6.828271865844727,0.7464370727539062,-2.419708251953125
1717002226906623500,12.16862353515625,5.50422477722168,-1.934797763824463,-2.694338321685791
1717002226916288800,12.178288818359375,-5.472196578979492,-7.825458526611328,-2.7975666522979736
1717002226925954300,12.187954345703124,-12.787528991699219,-15.693931579589844,-2.440542221069336
1717002226935619800,12.197619873046875,-11.056373596191406,-19.63808822631836,-2.2063252925872803
1717002226945285000,12.20728515625,-9.296321868896484,-19.38362693786621,0.4298372268676758
1717002226954950700,12.21695068359375,-6.812232494354248,-17.016666412353516,3.2824833393096924
1717002226964616200,12.2266162109375,-4.992267608642578,-13.60296630859375,3.8260209560394287
1717002226974281500,12.236281494140625,-2.71514892578125,-10.80885124206543,3.205315113067627
1717002226983947000,12.245947021484374,-0.4799666404724121,-8.585378646850586,2.4821391105651855
1717002226993612300,12.2556123046875,1.2479815483093262,-7.157644271850586,1.6425904035568237
1717002227003277800,12.26527783203125,2.3578102588653564,-6.453691482543945,0.9671710729598999
1717002227012943400,12.274943359375,3.0024116039276123,-6.426048278808594,0.44976043701171875
1717002227022608600,12.284608642578124,3.3741226196289062,-6.53518009185791,-0.11151719093322754
1717002227032274200,12.294274169921875,3.443373680114746,-6.8036651611328125,-0.50343918800354
1717002227041939700,12.303939697265625,2.917611598968506,-6.694266319274902,-1.131166934967041
1717002227051605000,12.31360498046875,1.572260856628418,-6.078001022338867,-1.481569766998291
1717002227061270500,12.3232705078125,0.5718915462493896,-4.121584892272949,-0.7834126949310303
