time,seconds_elapsed,z,y,x
1717001408523861000,0.120861083984375,0.18317782878875732,0.47027602791786194,0.2492256760597229
1717001408533527600,0.130527587890625,0.1752368062734604,0.48188212513923645,0.2510582208633423
1717001408543193900,0.14019384765625,0.16485241055488586,0.4977641701698303,0.25655585527420044
1717001408552860200,0.149860107421875,0.15080291032791138,0.5136461853981018,0.2626643180847168
1717001408562526500,0.1595263671875,0.1355317384004593,0.5289173722267151,0.26999449729919434
1717001408572192800,0.16919287109375,0.1220930963754654,0.5441885590553284,0.2761029601097107
1717001408581859000,0.178859130859375,0.11109784245491028,0.5496861934661865,0.27854636311531067
1717001408591525600,0.188525634765625,0.09949174523353577,0.5350258350372314,0.2767138183116913
1717001408601192000,0.19819189453125,0.09277242422103882,0.5167004466056824,0.2754921019077301
1717001408610858200,0.207858154296875,0.09216158092021942,0.5050943493843079,0.2730487287044525
1717001408620524500,0.217524658203125,0.09032903611660004,0.4910448491573334,0.2644968628883362
1717001408630190800,0.22719091796875,0.08360971510410309,0.4598916172981262,0.2492256760597229
1717001408639857200,0.236857177734375,0.0713164210319519,0.41591063141822815,0.22662433981895447
1717001408649523500,0.2465234375,0.05726693198084831,0.3694862425327301,0.20463383197784424
1717001408659189800,0.256189697265625,0.042606595903635025,0.329781174659729,0.1850867122411728
1717001408668856300,0.265856201171875,0.029778804630041122,0.3047364354133606,0.16615045070648193
1717001408678522600,0.275522705078125,0.021837789565324783,0.2900761067867279,0.1459924876689911
1717001408688189000,0.28518896484375,0.013896775431931019,0.2754157483577728,0.12400199472904205
1717001408697855200,0.294855224609375,0.005344913341104984,0.26991814374923706,0.10262233763933182
1717001408707521500,0.304521484375,-0.0007635590736754239,0.2821350693702698,0.08063183724880219
1717001408717187800,0.314187744140625,-0.0050394898280501366,0.3010713458061218,0.0525328628718853
1717001408726854100,0.323854248046875,-0.008704573847353458,0.29923880100250244,0.01954711228609085
1717001408736520700,0.333520751953125,-0.005650337319821119,0.2760266065597534,-0.017714571207761765
1717001408746187000,0.34318701171875,0.005955760832875967,0.24609509110450745,-0.05131116881966591
1717001408755853300,0.352853271484375,0.021226942539215088,0.21799612045288086,-0.07513421028852463
1717001408765519600,0.36251953125,0.037108972668647766,0.19234053790569305,-0.08612946420907974
1717001408775186000,0.37218603515625,0.04932591691613197,0.17096087336540222,-0.08735115826129913
1717001408784852200,0.381852294921875,0.05543438717722893,0.15080291032791138,-0.08246438205242157
1717001408794518800,0.391518798828125,0.051769305020570755,0.12392564117908478,-0.07696675509214401
1717001408804185000,0.40118505859375,0.041384901851415634,0.10132429003715515,-0.06963659077882767
1717001408813851400,0.410851318359375,0.030389651656150818,0.10560022294521332,-0.06169557198882103
1717001408823517700,0.420517578125,0.027946261689066887,0.13736428320407867,-0.05803048983216286
1717001408833184000,0.43018408203125,0.034665580838918686,0.16912832856178284,-0.06352811306715012
1717001408842850300,0.439850341796875,0.05115845799446106,0.18989713490009308,-0.07330167293548584
1717001408852516600,0.4495166015625,0.07742489129304886,0.20394663512706757,-0.08551861345767975
1717001408862183200,0.45918310546875,0.1086544543504715,0.21616357564926147,-0.09895725548267365
1717001408871849500,0.468849365234375,0.1361425817012787,0.2124984860420227,-0.1178935244679451
1717001408881515800,0.478515869140625,0.15385715663433075,0.18195612728595734,-0.14782503247261047
1717001408891182000,0.48818212890625,0.1617981642484665,0.1355317384004593,-0.18569757044315338
1717001408900848400,0.497848388671875,0.16607409715652466,0.09277242422103882,-0.2241809368133545
1717001408910514700,0.5075146484375,0.17035003006458282,0.08910734206438065,-0.25655585527420044
1717001408920181000,0.517180908203125,0.17951273918151855,0.1355317384004593,-0.2852656841278076
1717001408929847600,0.52684765625,0.19050799310207367,0.20577916502952576,-0.3139754831790924
1717001408939513900,0.536513916015625,0.20944425463676453,0.25770118832588196,-0.3390202224254608
1717001408949180200,0.54618017578125,0.2503710091114044,0.2943520247936249,-0.34879377484321594
1717001408958846500,0.555846435546875,0.30412557721138,0.3591018319129944,-0.3249707520008087
1717001408968512800,0.5655126953125,0.3413872718811035,0.4379011392593384,-0.258999228477478
1717001408978179000,0.575178955078125,0.34871742129325867,0.4647783935070038,-0.16004198789596558
1717001408987845400,0.584845458984375,0.3291703164577484,0.4238516390323639,-0.038483377546072006
1717001408997512000,0.594511962890625,0.2900761067867279,0.35177165269851685,0.10323318839073181
1717001409007178200,0.60417822265625,0.24181915819644928,0.29862794280052185,0.26999449729919434
1717001409016844500,0.613844482421875,0.19478392601013184,0.23632153868675232,0.4453076422214508
1717001409026510800,0.6235107421875,0.17096087336540222,0.10315682739019394,0.5766398310661316
1717001409036177200,0.63317724609375,0.11598462611436844,-0.0745997205376625,0.6071822047233582
1717001409045843500,0.642843505859375,0.029167955741286278,-0.24197186529636383,0.5534276366233826
1717001409055509800,0.652509765625,-0.025808297097682953,-0.3085542321205139,0.4599680006504059
1717001409065176000,0.662176025390625,-0.019088976085186005,-0.2334200143814087,0.3396310806274414
1717001409074842600,0.671842529296875,0.037108972668647766,-0.06726955622434616,0.21685077250003815
1717001409084509000,0.681509033203125,0.08727480471134186,0.07322531193494797,0.09468132257461548
1717001409094175200,0.69117529296875,0.07803573459386826,0.08605311065912247,-0.014049487188458443
1717001409103841500,0.700841552734375,-0.0038177953101694584,-0.05688514932990074,-0.08918370306491852
1717001409113507800,0.7105078125,-0.11560284346342087,-0.2321983128786087,-0.1056765764951706
1717001409123174100,0.720174072265625,-0.21211670339107513,-0.378190815448761,-0.08063183724880219
1717001409132840400,0.72984033203125,-0.284196674823761,-0.5205182433128357,-0.0647498071193695
1717001409142507000,0.739507080078125,-0.3171824514865875,-0.7098808884620667,-0.06963659077882767
1717001409152173300,0.74917333984375,-0.2835858464241028,-0.8283852338790894,-0.02748812735080719
1717001409161839600,0.758839599609375,-0.18585027754306793,-0.8045622110366821,0.08674030750989914
1717001409171506000,0.768505859375,-0.06184828653931618,-0.7501968145370483,0.21501824259757996
1717001409181172200,0.778172119140625,0.0462716780602932,-0.766689658164978,0.32252734899520874
1717001409190838500,0.787838623046875,0.10926530510187149,-0.8430455923080444,0.4220954477787018
1717001409200504800,0.7975048828125,0.11903885751962662,-0.9206231832504272,0.5192201733589172
1717001409210171400,0.80717138671875,0.07742489129304886,-0.9395594596862793,0.5974085927009583
1717001409219837700,0.816837646484375,0.008399149402976036,-0.8803072571754456,0.6297835111618042
1717001409229504000,0.82650390625,-0.06490252166986465,-0.747753381729126,0.6047387719154358
1717001409239170300,0.83617041015625,-0.12781979143619537,-0.6200863122940063,0.5436540842056274
1717001409248836600,0.845836669921875,-0.17363333702087402,-0.5504497289657593,0.4489727318286896
1717001409258503000,0.8555029296875,-0.19623468816280365,-0.5101338028907776,0.3164188861846924
1717001409268169200,0.865169189453125,-0.1889045089483261,-0.4191175699234009,0.15943112969398499
1717001409277835800,0.874835693359375,-0.15836215019226074,-0.23525254428386688,0.004886778071522713
1717001409287502000,0.884502197265625,-0.11804623156785965,-0.005573981441557407,-0.13682979345321655
1717001409297168400,0.89416845703125,-0.09055810421705246,0.19172967970371246,-0.25411245226860046
1717001409306834700,0.903834716796875,-0.09239064902067184,0.3010713458061218,-0.33596599102020264
1717001409316501000,0.9135009765625,-0.12354385852813721,0.2937411665916443,-0.37078428268432617
1717001409326167300,0.923167236328125,-0.1766875684261322,0.1752368062734604,-0.34818294644355774
1717001409335833600,0.93283349609375,-0.254265159368515,-0.024510245770215988,-0.27915719151496887
1717001409345500200,0.942500244140625,-0.3495573401451111,-0.2602972984313965,-0.183865025639534
1717001409355166500,0.95216650390625,-0.4375193417072296,-0.4930301010608673,-0.10078980028629303
1717001409364832800,0.961832763671875,-0.5230379700660706,-0.7074374556541443,-0.046424392610788345
1717001409374499000,0.9714990234375,-0.6305471062660217,-0.8564842343330383,-0.0006108472589403391
1717001409384165400,0.981165283203125,-0.6879667043685913,-1.0580638647079468,-0.014049487188458443
1717001409393831700,0.990831787109375,-0.6641436815261841,-1.262697696685791,-0.07085828483104706
1717001409403498000,1.000498046875,-0.5572454333305359,-1.3695958852767944,-0.16798299551010132
1717001409413164300,1.010164306640625,-0.37948885560035706,-1.3818128108978271,-0.29259583353996277
1717001409422830600,1.01983056640625,-0.1632489264011383,-1.408690094947815,-0.4367557764053345
1717001409432497200,1.0294970703125,0.06398624926805496,-1.4862676858901978,-0.5632011890411377
1717001409442163500,1.03916357421875,0.3163425326347351,-1.5650670528411865,-0.6377245187759399
1717001409451829800,1.048829833984375,0.5948888659477234,-1.576673150062561,-0.633448600769043
1717001409461496000,1.05849609375,0.888706386089325,-1.4997063875198364,-0.5473191738128662
1717001409471162400,1.068162353515625,1.167252779006958,-1.349437952041626,-0.42576053738594055
1717001409480828700,1.07782861328125,1.4146459102630615,-1.1845091581344604,-0.32130566239356995
1717001409490495000,1.087494873046875,1.5154356956481934,-1.0739458799362183,-0.2376195788383484
1717001409500161300,1.097161376953125,1.3321815729141235,-1.0159153938293457,-0.10628741979598999
1717001409509827800,1.106827880859375,1.0750148296356201,-1.0824977159500122,0.09407047927379608
1717001409519494100,1.116494140625,0.9839985966682434,-1.2517024278640747,0.3573456406593323
1717001409529160400,1.126160400390625,1.0316447019577026,-1.28590989112854,0.6456655263900757
1717001409538826800,1.13582666015625,1.0621870756149292,-1.271249532699585,0.8754204511642456
1717001409548493000,1.1454931640625,1.0682954788208008,-1.3042352199554443,0.979264497756958
1717001409558159400,1.155159423828125,1.1379320621490479,-1.4025816917419434,0.9829295873641968
1717001409567825700,1.16482568359375,1.1880215406417847,-1.7012859582901,0.9084062576293945
1717001409577492200,1.1744921875,1.2014602422714233,-2.247459888458252,0.7879929542541504
1717001409587158500,1.184158447265625,1.2460520267486572,-2.854641914367676,0.6865923404693604
1717001409596824800,1.193824951171875,1.2979741096496582,-3.4386119842529297,0.6444438695907593
1717001409606491100,1.2034912109375,1.4238085746765137,-4.092218399047852,0.7330167293548584
1717001409616157400,1.213157470703125,1.5258201360702515,-4.831419944763184,1.0195804834365845
1717001409625823700,1.22282373046875,1.7512227296829224,-5.3720197677612305,1.2541457414627075
1717001409635490000,1.232489990234375,2.098794937133789,-5.721424579620361,1.540633201599121
1717001409645156600,1.242156494140625,2.492180347442627,-5.844204902648926,1.9670045375823975
1717001409654823000,1.251822998046875,2.854489326477051,-5.829544544219971,2.4294159412384033
1717001409664489200,1.2614892578125,3.2038938999176025,-5.6957688331604,2.7592735290527344
1717001409674155500,1.271155517578125,3.4873270988464355,-5.31337833404541,2.775766372680664
1717001409683821800,1.28082177734375,3.677300453186035,-4.6426682472229,2.41109037399292
1717001409693488000,1.290488037109375,3.7670950889587402,-3.7189908027648926,1.7306066751480103
1717001409703154400,1.300154541015625,3.7615973949432373,-2.7086493968963623,0.9187906384468079
1717001409712820700,1.30982080078125,3.6925716400146484,-1.913326382637024,0.3536805510520935
1717001409722487300,1.3194873046875,3.5832300186157227,-1.6408120393753052,0.2345653474330902
1717001409732153600,1.329153564453125,3.434183359146118,-1.8204774856567383,0.5357130169868469
1717001409741820000,1.33881982421875,3.2381012439727783,-2.209587335586548,1.2840772867202759
1717001409751486200,1.348486328125,3.00536847114563,-2.6744420528411865,2.3176307678222656
1717001409761152500,1.358152587890625,2.7610297203063965,-3.0415611267089844,3.3127009868621826
1717001409770818800,1.36781884765625,2.483017683029175,-3.193051338195801,4.020138740539551
1717001409780485000,1.377485107421875,2.171485662460327,-3.1289124488830566,4.375651836395264
1717001409790151400,1.3871513671875,1.8037556409835815,-2.904120683670044,4.382370948791504
1717001409799817700,1.396817626953125,1.3260730504989624,-2.6041946411132812,4.116041660308838
1717001409809484300,1.406484375,0.7500441074371338,-2.252957344055176,3.7122714519500732
1717001409819150600,1.416150634765625,0.13247749209403992,-1.899276852607727,3.244286060333252
1717001409828817000,1.42581689453125,-0.441795289516449,-1.5210859775543213,2.726898431777954
1717001409838483200,1.435483154296875,-0.9219212532043457,-1.128311276435852,2.150258779525757
1717001409848149500,1.4451494140625,-1.3189719915390015,-0.766689658164978,1.5565152168273926
1717001409857815800,1.45481591796875,-1.629893183708191,-0.47714805603027344,0.9920923113822937
1717001409867482000,1.464482177734375,-1.8736212253570557,-0.38002336025238037,0.4575245976448059
1717001409877148400,1.4741484375,-2.0806984901428223,-0.5247941613197327,-0.030542362481355667
1717001409886815000,1.48381494140625,-2.212641477584839,-0.803340494632721,-0.4214846193790436
1717001409896481300,1.493481201171875,-2.2028679847717285,-1.0733349323272705,-0.6536065936088562
1717001409906147600,1.503147705078125,-2.0764224529266357,-1.2431504726409912,-0.7067502737045288
1717001409915814000,1.51281396484375,-1.9029419422149658,-1.35798978805542,-0.684148907661438
1717001409925480200,1.522480224609375,-1.5956857204437256,-1.5363571643829346,-1.1459494829177856
1717001409935146500,1.532146484375,-0.9396358132362366,-1.497262954711914,-2.426361560821533
1717001409944812800,1.541812744140625,-0.49677154421806335,-1.1307545900344849,-3.365233898162842
1717001409954479000,1.55147900390625,-0.4772244095802307,-1.0372949838638306,-3.4391465187072754
1717001409964145700,1.561145751953125,-0.594507098197937,-1.334777593612671,-2.998114585876465
1717001409973812000,1.57081201171875,-0.598783016204834,-1.8058172464370728,-2.3194634914398193
1717001409983478300,1.580478271484375,-0.4747810363769531,-2.1943161487579346,-1.479472041130066
1717001409993144600,1.59014453125,-0.35200074315071106,-2.444152593612671,-0.7024743556976318
1717001410002811000,1.599810791015625,-0.2292204350233078,-2.5589919090270996,-0.1319430023431778
1717001410012477200,1.609477294921875,-0.07711946964263916,-2.4722516536712646,0.15149012207984924
1717001410022143500,1.6191435546875,0.05421269312500954,-2.2376861572265625,0.21746163070201874
1717001410031809800,1.628809814453125,0.15019206702709198,-1.8730103969573975,0.08979454636573792
1717001410041476400,1.638476318359375,0.29496288299560547,-1.332334280014038,-0.1557660549879074
1717001410051142700,1.648142578125,0.47882789373397827,-0.7685222029685974,-0.3115321099758148
1717001410060809000,1.65780908203125,0.6376481652259827,-0.4942517876625061,-0.46851983666419983
1717001410070475300,1.667475341796875,0.7934142351150513,-0.4649311304092407,-0.6303943991661072
1717001410080141600,1.6771416015625,0.9656731486320496,-0.5113555192947388,-0.7519529461860657
1717001410089808000,1.686807861328125,1.161755084991455,-0.6072585582733154,-0.8130376935005188
1717001410099474200,1.69647412109375,1.4690113067626953,-0.6897228956222534,-0.8466343283653259
1717001410109140500,1.706140380859375,1.6956356763839722,-0.6121453046798706,-0.8710681796073914
1717001410118807000,1.71580712890625,1.7231237888336182,-0.3335989713668823,-0.8582404255867004
1717001410128473300,1.725473388671875,1.6247773170471191,0.0017561858985573053,-0.8130376935005188
1717001410138139600,1.7351396484375,1.4873367547988892,0.42812758684158325,-0.7855495810508728
1717001410147806000,1.744805908203125,1.3224079608917236,0.8563315272331238,-0.8295305967330933
1717001410157472300,1.75447216796875,1.1422079801559448,1.2192511558532715,-0.9071081876754761
1717001410167138600,1.764138671875,1.051191806793213,1.4819154739379883,-0.9614735841751099
1717001410176804900,1.773804931640625,0.9345199465751648,1.5063493251800537,-1.032942771911621
1717001410186471200,1.78347119140625,0.7573742270469666,1.2424633502960205,-1.1215155124664307
1717001410196137500,1.793137451171875,0.5551838278770447,0.8306758999824524,-1.1734375953674316
1717001410205803800,1.8028037109375,0.4507289230823517,0.47088688611984253,-1.1593880653381348
1717001410215470300,1.81247021484375,0.44278791546821594,0.2772482931613922,-1.0769237279891968
1717001410225136600,1.82213671875,0.5429668426513672,0.14347274601459503,-0.9547542929649353
1717001410234803000,1.831802978515625,0.7720345854759216,0.0023670331574976444,-0.8533536195755005
1717001410244469200,1.84146923828125,1.0579110383987427,-0.08070819079875946,-0.7782194018363953
1717001410254135600,1.851135498046875,1.346841812133789,-0.13018682599067688,-0.7165238261222839
1717001410263801900,1.8608017578125,1.6168363094329834,-0.18577392399311066,-0.6554391384124756
1717001410273468200,1.87046826171875,1.851401686668396,-0.26212984323501587,-0.5833591222763062
1717001410283134500,1.880134521484375,2.1232287883758545,-0.3219928741455078,-0.5216635465621948
1717001410292800800,1.88980078125,2.448199510574341,-0.3897969126701355,-0.47646087408065796
1717001410302467300,1.89946728515625,2.7732465267181396,-0.5223507881164551,-0.42392799258232117
1717001410312133600,1.909133544921875,3.118375301361084,-0.7373690009117126,-0.3402419090270996
1717001410321800000,1.918800048828125,3.4995439052581787,-1.0073634386062622,-0.22540263831615448
1717001410331466200,1.92846630859375,3.9008705615997314,-1.252313256263733,-0.0922379344701767
1717001410341132500,1.938132568359375,4.252718448638916,-1.4038033485412598,0.047646086663007736
1717001410350798800,1.947798828125,4.461628437042236,-1.442286729812622,0.18142163753509521
1717001410360465200,1.957465087890625,4.464682579040527,-1.2993484735488892,0.3029802441596985
1717001410370131500,1.96713134765625,4.2368364334106445,-0.9365051984786987,0.4343124032020569
1717001410379797800,1.9767978515625,3.8257362842559814,-0.5492280125617981,0.5497625470161438
1717001410389464300,1.98646435546875,3.3107922077178955,-0.3397074341773987,0.6157340407371521
1717001410399130600,1.996130615234375,2.800123929977417,-0.2682383060455322,0.6267293095588684
1717001410408797000,2.005796875,2.3229758739471436,-0.33298811316490173,0.5656445622444153
1717001410418463200,2.015463134765625,1.8520125150680542,-0.4551575779914856,0.4587462842464447
1717001410428129500,2.025129638671875,1.3822709321975708,-0.5571690797805786,0.33718767762184143
1717001410437795800,2.0347958984375,0.9284114837646484,-0.5913764834403992,0.20280128717422485
1717001410447462100,2.044462158203125,0.5020400881767273,-0.5180748105049133,0.08185353130102158
1717001410457128400,2.05412841796875,0.10498937219381332,-0.375747412443161,0.005497625097632408
1717001410466795000,2.063794921875,-0.2286095917224884,-0.2560213506221771,-0.02076880633831024
1717001410476461300,2.07346142578125,-0.43141087889671326,-0.19982340931892395,-0.007941014133393764
1717001410486127600,2.083127685546875,-0.46928340196609497,-0.22242476046085358,0.03542914241552353
1717001410495794000,2.0927939453125,-0.39476004242897034,-0.27923354506492615,0.10628741979598999
1717001410505460200,2.102460205078125,-0.26281702518463135,-0.3079433739185333,0.19363857805728912
1717001410515126500,2.11212646484375,-0.10827267915010452,-0.26396235823631287,0.29320669174194336
1717001410524792800,2.121792724609375,0.04810422286391258,-0.17050273716449738,0.38788801431655884
1717001410534459100,2.131459228515625,0.23571068048477173,-0.036727190017700195,0.45508119463920593
1717001410544125400,2.14112548828125,0.3988068997859955,0.10010259598493576,0.4831801950931549
1717001410553791700,2.150791748046875,0.5136461853981018,0.1617981642484665,0.46851983666419983
1717001410563458000,2.1604580078125,0.5845044851303101,0.1336991935968399,0.4196520745754242
1717001410573124600,2.17012451171875,0.5295282006263733,0.06528430432081223,0.365286648273468
1717001410582791000,2.179791015625,0.3939201235771179,-0.004963133949786425,0.32008397579193115
1717001410592457200,2.189457275390625,0.2399866133928299,-0.012904148548841476,0.2852656841278076
1717001410602123500,2.19912353515625,0.1611873209476471,0.10315682739019394,0.2351761907339096
1717001410611789800,2.208789794921875,0.2540360987186432,0.16790664196014404,0.1698155403137207
1717001410621456100,2.2184560546875,0.3438306450843811,0.10498937219381332,0.13438639044761658
1717001410631122400,2.228122314453125,0.3707079291343689,-0.01046075951308012,0.11361759155988693
1717001410640788700,2.237788818359375,0.39147675037384033,-0.07887565344572067,0.08979454636573792
1717001410650455000,2.247455078125,0.406137079000473,-0.11063970625400543,0.07696675509214401
1717001410660121600,2.25712158203125,0.33588963747024536,-0.13751699030399323,0.08002099394798279
1717001410669788000,2.266787841796875,0.2650313675403595,-0.14362546801567078,0.07391251623630524
1717001410679454200,2.2764541015625,0.250981867313385,-0.14362546801567078,0.042759306728839874
1717001410689120500,2.28612060546875,0.2528144121170044,-0.13324105739593506,-0.006108472589403391
1717001410698786800,2.295786865234375,0.25647950172424316,-0.07765395939350128,-0.06719319522380829
1717001410708453000,2.305453125,0.174625962972641,-0.035505495965480804,-0.08857285231351852
1717001410718119400,2.315119384765625,0.04077405482530594,-0.015347537584602833,-0.06719319522380829
1717001410727785700,2.32478564453125,-0.04169032722711563,-0.034283801913261414,-0.026877280324697495
1717001410737452000,2.3344521484375,-0.04474456235766411,-0.04772244393825531,0.008551862090826035
1717001410747118300,2.344118408203125,-0.015423892997205257,-0.036727190017700195,0.02748812735080719
1717001410756785000,2.353784912109375,0.03649812191724777,-0.004963133949786425,0.026877280324697495
1717001410766451200,2.363451171875,0.10132429003715515,0.0555107444524765,0.01710372418165207
1717001410776117500,2.373117431640625,0.13919681310653687,0.0946049690246582,0.006719320081174374
1717001410785783800,2.38278369140625,0.12575818598270416,0.11781716346740723,-0.0036650835536420345
1717001410795450000,2.3924501953125,0.10987614840269089,0.1611873209476471,-0.013438640162348747
1717001410805116400,2.402116455078125,0.11415208131074905,0.22899135947227478,-0.01710372418165207
1717001410814782700,2.41178271484375,0.1361425817012787,0.2778591513633728,-0.026877280324697495
1717001410824449000,2.421448974609375,0.16424155235290527,0.31145575642585754,-0.04886778071522713
1717001410834115300,2.431115234375,0.1599656194448471,0.32489439845085144,-0.06902574002742767
1717001410843782000,2.440781982421875,0.13675342500209808,0.3279486298561096,-0.07452336698770523
1717001410853448000,2.450447998046875,0.14286190271377563,0.28274592757225037,-0.08063183724880219
1717001410863114500,2.460114501953125,0.1477486789226532,0.25709033012390137,-0.07391251623630524
1717001410872780800,2.46978076171875,0.1471378356218338,0.24548424780368805,-0.04947862774133682
1717001410882447000,2.479447021484375,0.1355317384004593,0.17890189588069916,-0.017714571207761765
1717001410892113400,2.489113525390625,0.13003410398960114,0.12026055157184601,0.004275931045413017
1717001410901779700,2.49877978515625,0.18317782878875732,0.11170869320631027,0.0012216945178806782
1717001410911446000,2.508446044921875,0.22043950855731964,0.07261446863412857,0.0006108472589403391
1717001410921112300,2.5181123046875,0.2247154414653778,0.0005344913806766272,0.01588202826678753
1717001410930778600,2.527778564453125,0.21066594123840332,-0.009849912486970425,0.042759306728839874
1717001410940445000,2.53744482421875,0.14225105941295624,-0.026342788711190224,0.07635590434074402
1717001410950111200,2.547111328125,0.07559234648942947,-0.08620581775903702,0.09956810623407364
1717001410959777800,2.55677783203125,0.07864658534526825,-0.14301460981369019,0.10689827054738998
1717001410969444000,2.566444091796875,0.10498937219381332,-0.1796654462814331,0.11361759155988693
1717001410979110400,2.5761103515625,0.14102935791015625,-0.23586340248584747,0.11911521852016449
1717001410988776700,2.585776611328125,0.17645850777626038,-0.2712925374507904,0.12216944992542267
1717001410998443000,2.595443115234375,0.23326729238033295,-0.25418880581855774,0.11117420345544815
1717001411008109300,2.605109375,0.30656898021698,-0.2309766262769699,0.08918370306491852
1717001411017775600,2.614775634765625,0.3859791159629822,-0.2199813723564148,0.06169557198882103
1717001411027442000,2.62444189453125,0.4782170355319977,-0.1821088343858719,0.04825693368911743
1717001411037108200,2.634108154296875,0.593667209148407,-0.11186140775680542,0.06413896381855011
1717001411046774800,2.64377490234375,0.7078956365585327,-0.055052608251571655,0.0922379344701767
1717001411056441000,2.653441162109375,0.7818081378936768,-0.036727190017700195,0.10323318839073181
1717001411066107400,2.663107421875,0.8044095039367676,-0.05444176122546196,0.08612946420907974
1717001411075773700,2.672773681640625,0.773867130279541,-0.1149156391620636,0.04092676565051079
1717001411085440000,2.68243994140625,0.7054522037506104,-0.1814979910850525,-0.004275931045413017
1717001411095106300,2.692106201171875,0.611992597579956,-0.21265120804309845,-0.021990500390529633
1717001411104772600,2.701772705078125,0.5057051777839661,-0.21265120804309845,-0.004275931045413017
1717001411114439000,2.71143896484375,0.4244624972343445,-0.1821088343858719,0.047646086663007736
1717001411124105200,2.721105224609375,0.37437301874160767,-0.1417929232120514,0.10811996459960938
1717001411133771500,2.730771484375,0.36215606331825256,-0.10453123599290848,0.16248537600040436
1717001411143438000,2.74043798828125,0.36215606331825256,-0.055052608251571655,0.20219044387340546
1717001411153104400,2.7501044921875,0.3407764136791229,-0.011071606539189816,0.2113531529903412
1717001411162770700,2.759770751953125,0.29496288299560547,0.020692450925707817,0.19363857805728912
1717001411172437000,2.76943701171875,0.2515927255153656,0.027411770075559616,0.16553960740566254
1717001411182103300,2.779103271484375,0.24243000149726868,0.005421269219368696,0.13805148005485535
1717001411191769600,2.78876953125,0.2405974566936493,-0.03306210786104202,0.10384403169155121
1717001411201436000,2.798435791015625,0.22960221767425537,-0.05993938818573952,0.0653606578707695
1717001411211102200,2.808102294921875,0.21066594123840332,-0.05322006717324257,0.03420744836330414
1717001411220768500,2.8177685546875,0.19539476931095123,-0.017180079594254494,0.013438640162348747
1717001411230434800,2.827434814453125,0.17096087336540222,0.021914144977927208,0.0006108472589403391
1717001411240101000,2.83710107421875,0.14958122372627258,0.05978667363524437,-0.0012216945178806782
1717001411249767400,2.846767333984375,0.1343100368976593,0.08666395395994186,0.006108472589403391
1717001411259434000,2.85643408203125,0.11537377536296844,0.10010259598493576,0.01954711228609085
1717001411269100300,2.866100341796875,0.08231166750192642,0.1080436110496521,0.029320668429136276
1717001411278766600,2.8757666015625,0.037108972668647766,0.1074327602982521,0.034818295389413834
1717001411288433000,2.885432861328125,-0.013591351918876171,0.09888090193271637,0.0390942245721817
1717001411298099200,2.89509912109375,-0.06795676052570343,0.0817771777510643,0.03665083646774292
1717001411307765500,2.904765625,-0.11926792562007904,0.06772769242525101,0.025655584409832954
1717001411317431800,2.914431884765625,-0.11987877637147903,0.04940227046608925,0.0030542362947016954
1717001411327098000,2.92409814453125,-0.09483403712511063,0.03352024406194687,-0.023823043331503868
1717001411336764400,2.933764404296875,-0.08322793990373611,0.03840702027082443,-0.03542914241552353
1717001411346430700,2.9434306640625,-0.08322793990373611,0.04940227046608925,-0.02870982140302658
1717001411356097000,2.953096923828125,-0.07589777559041977,0.06284090876579285,-0.010995250195264816
1717001411365763600,2.962763671875,-0.06123743951320648,0.07261446863412857,0.004886778071522713
1717001411375430000,2.972429931640625,-0.04840964451432228,0.06284090876579285,0.012216945178806782
1717001411385096200,2.98209619140625,-0.04230117425322533,0.04512634128332138,0.011606098152697086
1717001411394762500,2.991762451171875,-0.04230117425322533,0.022524992004036903,0.004275931045413017
1717001411404428800,3.0014287109375,-0.04963133856654167,0.006032116711139679,-0.0036650835536420345
1717001411414095000,3.01109521484375,-0.058183200657367706,-0.00007635590736754239,-0.010995250195264816
1717001411423761400,3.020761474609375,-0.06856760382652283,0.004199574701488018,-0.014660334214568138
1717001411433427700,3.030427734375,-0.08078455179929733,-0.0019088976550847292,-0.014049487188458443
1717001411443094000,3.040093994140625,-0.09055810421705246,-0.02145601063966751,-0.012827792204916477
1717001411452760300,3.04976025390625,-0.09422318637371063,-0.035505495965480804,-0.014660334214568138
1717001411462427000,3.059427001953125,-0.08811471611261368,-0.04650074616074562,-0.016492875292897224
1717001411472093200,3.06909326171875,-0.0716218426823616,-0.053830914199352264,-0.017714571207761765
1717001411481759500,3.078759521484375,-0.05268557742238045,-0.05322006717324257,-0.020157959312200546
1717001411491425800,3.08842578125,-0.03436015918850899,-0.04527905210852623,-0.023212196305394173
1717001411501092000,3.098092041015625,-0.014202198944985867,-0.035505495965480804,-0.024433890357613564
1717001411510758400,3.10775830078125,0.007177455350756645,-0.024510245770215988,-0.021379653364419937
1717001411520424700,3.1174248046875,0.014507622458040714,-0.014125842601060867,-0.012216945178806782
1717001411530091000,3.127091064453125,0.0035123717971146107,0.0023670331574976444,-0.007941014133393764
1717001411539757300,3.13675732421875,-0.015423892997205257,0.02008160389959812,-0.01038440316915512
1717001411549423600,3.146423583984375,-0.015423892997205257,0.02680092304944992,-0.01710372418165207
1717001411559090000,3.15608984375,-0.008093725889921188,0.02008160389959812,-0.022601349279284477
1717001411568756200,3.165756103515625,0.0010689827613532543,0.004810422193259001,-0.020157959312200546
1717001411578422500,3.175422607421875,0.010842538438737392,-0.014125842601060867,-0.012827792204916477
1717001411588089000,3.185089111328125,0.013285927474498749,-0.019623467698693275,-0.007330167107284069
1717001411597755400,3.19475537109375,0.013285927474498749,-0.015347537584602833,-0.0036650835536420345
1717001411607421700,3.204421630859375,0.013896775431931019,-0.007406522985547781,-0.0006108472589403391
1717001411617088000,3.214087890625,0.02244863659143448,0.0005344913806766272,-0.0012216945178806782
1717001411626754300,3.22375439453125,0.06154286116361618,0.015805672854185104,-0.004275931045413017
1717001411636420600,3.233420654296875,0.11415208131074905,0.013973130844533443,-0.0024433890357613564
1717001411646087000,3.2430869140625,0.1361425817012787,0.0005344913806766272,0.0030542362947016954
1717001411655753200,3.252753173828125,0.11781716346740723,0.026190076023340225,0.007941014133393764
1717001411665419500,3.26241943359375,0.07803573459386826,0.06711684167385101,0.012827792204916477
1717001411675085800,3.2720859375,0.04443913698196411,0.10315682739019394,0.012216945178806782
1717001411684752100,3.281752197265625,0.013896775431931019,0.12881241738796234,0.0030542362947016954
1717001411694418700,3.291418701171875,-0.00992626789957285,0.12759071588516235,-0.007330167107284069
1717001411704085000,3.3010849609375,-0.012369656935334206,0.09155073016881943,-0.008551862090826035
1717001411713751300,3.310751220703125,-0.01725643500685692,0.06039752438664436,-0.0024433890357613564
1717001411723417600,3.32041748046875,-0.00992626789957285,0.03901786729693413,0.004886778071522713
1717001411733084000,3.330083984375,0.020005248486995697,-0.004963133949786425,-0.0018325417768210173
1717001411742750200,3.339750244140625,0.03527642786502838,-0.0361163429915905,-0.01832541823387146
1717001411752416500,3.34941650390625,0.0462716780602932,-0.048333290964365005,-0.031153209507465363
1717001411762082800,3.359082763671875,0.05238015204668045,-0.048333290964365005,-0.030542362481355667
1717001411771749000,3.3687490234375,0.0719272643327713,-0.06360447406768799,-0.01832541823387146
1717001411781415400,3.37841552734375,0.1752368062734604,-0.10636378079652786,-0.005497625097632408
1717001411791081700,3.388081787109375,0.2888543903827667,-0.16500511765480042,0.0012216945178806782
1717001411800748300,3.397748291015625,0.436068594455719,-0.13507360219955444,0.036039989441633224
1717001411810414600,3.40741455078125,0.5906129479408264,-0.057496000081300735,0.06352811306715012
1717001411820081000,3.417080810546875,0.72683185338974,0.035352785140275955,0.08918370306491852
1717001411829747200,3.426747314453125,0.8593857288360596,0.059175826609134674,0.10750912129878998
1717001411839413500,3.43641357421875,1.0365314483642578,0.031076854094862938,0.13805148005485535
1717001411849079800,3.446079833984375,1.2301700115203857,-0.0361163429915905,0.17592400312423706
1717001411858746000,3.45574609375,1.3999855518341064,-0.14484715461730957,0.21990501880645752
1717001411868412400,3.465412353515625,1.5520864725112915,-0.23036576807498932,0.26877278089523315
1717001411878078700,3.47507861328125,1.7139610052108765,-0.2444152534008026,0.33474430441856384
1717001411887745000,3.4847451171875,1.8837765455245972,-0.2071535736322403,0.4367557764053345
1717001411897411300,3.494411376953125,2.0108327865600586,-0.20226679742336273,0.5638120174407959
1717001411907077600,3.50407763671875,2.0798585414886475,-0.24258272349834442,0.6615476012229919
1717001411916744000,3.513743896484375,2.1470518112182617,-0.2700708508491516,0.7024743556976318
1717001411926410200,3.52341015625,2.240511417388916,-0.246247798204422,0.6981984376907349
1717001411936076800,3.533076904296875,2.352907180786133,-0.24991288781166077,0.6927008032798767
1717001411945743000,3.5427431640625,2.520890235900879,-0.3262687921524048,0.6817055344581604
1717001411955409400,3.552409423828125,2.770803213119507,-0.5076904296875,0.6279509663581848
1717001411965075700,3.56207568359375,3.0224721431732178,-0.6988856196403503,0.4825693368911743
1717001411974742000,3.571741943359375,3.159301996231079,-0.7373690009117126,0.2522799074649811
1717001411984408300,3.581408203125,3.1660213470458984,-0.6304707527160645,0.01588202826678753
1717001411994074600,3.59107470703125,3.0963847637176514,-0.5052470564842224,-0.13927318155765533
1717001412003741000,3.600740966796875,2.93023419380188,-0.44660571217536926,-0.27915719151496887
1717001412013407200,3.6104072265625,2.6009113788604736,-0.6176429390907288,-0.4294256269931793
1717001412023073500,3.620073486328125,2.1055140495300293,-1.0232455730438232,-0.554649293422699
1717001412032739800,3.62973974609375,1.531928539276123,-1.5901117324829102,-0.6352811455726624
1717001412042406400,3.639406494140625,0.9736141562461853,-2.1943161487579346,-0.648108959197998
1717001412052072700,3.64907275390625,0.5087594389915466,-2.774010181427002,-0.5864133834838867
1717001412061739000,3.658739013671875,0.17951273918151855,-3.116084575653076,-0.522885262966156
1717001412071405300,3.6684052734375,-0.0716218426823616,-3.0794336795806885,-0.522885262966156
1717001412081071600,3.678071533203125,-0.2707580327987671,-2.930997848510742,-0.5302154421806335
1717001412090738000,3.687738037109375,-0.3880407214164734,-2.863804578781128,-0.48073679208755493
1717001412100404200,3.697404296875,-0.4246915578842163,-2.777064323425293,-0.3946073353290558
1717001412110070500,3.707070556640625,-0.40331190824508667,-2.5675437450408936,-0.3390202224254608
1717001412119736800,3.71673681640625,-0.3361186981201172,-2.1656062602996826,-0.36284327507019043
1717001412129403100,3.726403076171875,-0.2536543309688568,-1.5455199480056763,-0.4727957844734192
1717001412139069400,3.7360693359375,-0.20845162868499756,-0.771576464176178,-0.6395570635795593
1717001412148735700,3.74573583984375,-0.24754585325717926,-0.047111593186855316,-0.7959339618682861
1717001412158402300,3.75540234375,-0.3764346241950989,0.611992597579956,-0.9138274788856506
1717001412168068600,3.765068603515625,-0.5590779781341553,1.230857253074646,-0.9810206890106201
1717001412177735000,3.77473486328125,-0.7099572420120239,1.786117434501648,-0.9816315174102783
1717001412187401200,3.784401123046875,-0.774707019329071,2.1477389335632324,-0.869846522808075
1717001412197067500,3.794067626953125,-0.7301151752471924,2.2326467037200928,-0.6401679515838623
1717001412206733800,3.80373388671875,-0.5804576277732849,1.925390601158142,-0.3536805510520935
1717001412216400100,3.813400146484375,-0.4161396920681,1.3780714273452759,-0.130721315741539
1717001412226066400,3.82306640625,-0.31473904848098755,0.7708128690719604,-0.07146912813186646
1717001412235732700,3.832732666015625,-0.2939702570438385,0.1465269923210144,-0.16187451779842377
1717001412245399000,3.84239892578125,-0.34039464592933655,-0.45088163018226624,-0.37444937229156494
1717001412255065300,3.8520654296875,-0.435075968503952,-0.9707126617431641,-0.6389462351799011
1717001412264731600,3.861731689453125,-0.5071559548377991,-1.4355673789978027,-0.8741224408149719
1717001412274398000,3.87139794921875,-0.4662291705608368,-1.8467439413070679,-1.0188932418823242
1717001412284064300,3.881064208984375,-0.3379512429237366,-2.1478917598724365,-1.0616525411605835
1717001412293730600,3.89073046875,-0.2157817929983139,-2.251124858856201,-1.0384403467178345
1717001412303397000,3.900397216796875,-0.14553436636924744,-2.0238897800445557,-0.9736905097961426
1717001412313063400,3.9100634765625,-0.02214321307837963,-1.5840033292770386,-0.8845068216323853
1717001412322729700,3.919729736328125,0.16668494045734406,-0.9126821756362915,-0.7843278646469116
1717001412332396000,3.92939599609375,0.40491536259651184,0.10621106624603271,-0.675597071647644
1717001412342062300,3.939062255859375,0.6009973287582397,0.6089383363723755,-0.4605788290500641
1717001412351728600,3.948728759765625,0.7421030402183533,0.8025769591331482,-0.19363857805728912
1717001412361395000,3.95839501953125,0.773867130279541,0.9161945581436157,0.06291726976633072
1717001412371061200,3.968061279296875,0.47027602791786194,0.6785749197006226,0.27915719151496887
1717001412380727600,3.9777275390625,-0.029473381116986275,-0.007406522985547781,0.4202629029750824
1717001412390393900,3.987393798828125,-0.3764346241950989,-0.6738408803939819,0.4679090082645416
1717001412400060200,3.99706005859375,-0.5120427012443542,-1.1289221048355103,0.42881476879119873
1717001412409726500,4.0067265625,-0.47355934977531433,-1.3433294296264648,0.30481278896331787
1717001412419393000,4.01639306640625,-0.3190149664878845,-1.3793694972991943,0.11911521852016449
1717001412429059300,4.026059326171875,-0.09239064902067184,-1.330501675605774,-0.06658235192298889
1717001412438725600,4.0357255859375,0.13125580549240112,-1.3048460483551025,-0.1966928243637085
1717001412448392000,4.045391845703125,0.31328830122947693,-1.3805911540985107,-0.2522799074649811
1717001412458058200,4.055058349609375,0.45561569929122925,-1.6017178297042847,-0.23884128034114838
1717001412467724500,4.064724609375,0.5814502239227295,-1.9096612930297852,-0.19302773475646973
1717001412477390800,4.074390869140625,0.7005654573440552,-2.1680495738983154,-0.15271180868148804
1717001412487057200,4.08405712890625,0.8105179667472839,-2.271282911300659,-0.1557660549879074
1717001412496723500,4.093723388671875,0.9186379313468933,-2.138118028640747,-0.21685077250003815
1717001412506389800,4.1033896484375,1.018206000328064,-1.7264070510864258,-0.31825143098831177
1717001412516056000,4.11305615234375,1.0841774940490723,-1.0513445138931274,-0.42331716418266296
1717001412525722400,4.122722412109375,1.1055572032928467,-0.2328091561794281,-0.497229665517807
1717001412535388700,4.132388671875,1.0817341804504395,0.6003865003585815,-0.4990622103214264
1717001412545055000,4.142054931640625,1.0163735151290894,1.3224843740463257,-0.4031592011451721
1717001412554721300,4.15172119140625,0.9284114837646484,1.8551430702209473,-0.2217375487089157
1717001412564387800,4.161387939453125,0.8477796316146851,2.1886656284332275,-0.012216945178806782
1717001412574054100,4.17105419921875,0.8257891535758972,2.4262852668762207,0.1844758689403534
1717001412583720400,4.180720458984375,0.8850412964820862,2.68161940574646,0.34818294644355774
1717001412593386800,4.19038671875,0.9839985966682434,2.973604440689087,0.46668729186058044
1717001412603053000,4.200052978515625,1.0670738220214844,3.242988109588623,0.5381564497947693
1717001412612719400,4.20971923828125,1.083566665649414,3.2991859912872314,0.5711421966552734
1717001412622385700,4.2193857421875,0.963229775428772,2.892972707748413,0.5564818382263184
1717001412632052000,4.229052001953125,0.7115607261657715,2.068939685821533,0.5033381581306458
1717001412641718300,4.23871826171875,0.36398860812187195,1.2180293798446655,0.4306473135948181
1717001412651384600,4.248384521484375,-0.03436015918850899,0.5832827687263489,0.33535513281822205
1717001412661051000,4.25805078125,-0.441795289516449,0.3206184506416321,0.20707722008228302
1717001412670717200,4.26771728515625,-0.798530101776123,0.569844126701355,0.08063183724880219
1717001412680383500,4.277383544921875,-1.0624160766601562,0.9736905097961426,0.008551862090826035
1717001412690049800,4.2870498046875,-1.2249014377593994,1.1911520957946777,0.056808795779943466
1717001412699716400,4.29671630859375,-1.2646065950393677,1.1795459985733032,0.2522799074649811
1717001412709382700,4.306382568359375,-1.1742011308670044,1.0598199367523193,0.5357130169868469
1717001412719049000,4.316049072265625,-0.9958337545394897,0.9565867781639099,0.7690566778182983
1717001412728715300,4.32571533203125,-0.8217422962188721,0.8917606472969055,0.8632035255432129
1717001412738381600,4.335381591796875,-0.7026270627975464,0.8019660711288452,0.8478559851646423
1717001412748048000,4.3450478515625,-0.5633538961410522,0.6688013672828674,0.7684458494186401
1717001412757714200,4.354714111328125,-0.4509579837322235,0.49348822236061096,0.648108959197998
1717001412767380500,4.36438037109375,-0.3581092059612274,0.20455747842788696,0.5125008225440979
1717001412777046800,4.374046875,-0.3049654960632324,-0.11980241537094116,0.4092676639556885
1717001412786713000,4.383713134765625,-0.2829749882221222,-0.3616979420185089,0.3286358118057251
1717001412796379400,4.39337939453125,-0.23227466642856598,-0.4527141749858856,0.26877278089523315
1717001412806045700,4.403045654296875,-0.13453911244869232,-0.4441623091697693,0.2858765125274658
1717001412815712000,4.4127119140625,-0.05207473039627075,-0.49913856387138367,0.38727715611457825
1717001412825378300,4.42237841796875,-0.019088976085186005,-0.7361472845077515,0.503948986530304
1717001412835044600,4.432044677734375,-0.00259610079228878,-1.113650918006897,0.5864133834838867
1717001412844711200,4.441711181640625,-0.014202198944985867,-1.336610198020935,0.629172682762146
1717001412854377500,4.45137744140625,0.0010689827613532543,-1.2223817110061646,0.726908266544342
1717001412864043800,4.461043701171875,0.01572931744158268,-0.8748096227645874,0.8693119883537292
1717001412873710000,4.4707099609375,-0.02092151902616024,-0.5150206089019775,1.0018658638000488
1717001412883376400,4.48037646484375,-0.08322793990373611,-0.22792237997055054,1.1032664775848389
1717001412893042700,4.490042724609375,-0.14248012006282806,0.004810422193259001,1.1539667844772339
1717001412902709000,4.499708984375,-0.16141638159751892,0.20761170983314514,1.1545777320861816
1717001412912375300,4.509375244140625,-0.1369825005531311,0.37681639194488525,1.126478672027588
1717001412922041600,4.51904150390625,-0.09666658192873001,0.5221980214118958,1.094714641571045
1717001412931708000,4.5287080078125,-0.06001574173569679,0.6840725541114807,1.0751675367355347
1717001412941374200,4.538374267578125,-0.03130592033267021,0.8129613399505615,1.0684481859207153
1717001412951040500,4.54804052734375,-0.01175880990922451,0.852055549621582,1.0458468198776245
1717001412960706800,4.557706787109375,-0.007482878863811493,0.7903599739074707,0.9743777513504028
1717001412970373000,4.567373046875,-0.001985253533348441,0.639480710029602,0.8490777015686035
1717001412980039700,4.577039794921875,0.020616095513105392,0.4207974076271057,0.712247908115387
1717001412989706000,4.5867060546875,0.06520794332027435,0.17035003006458282,0.6132906675338745
1717001412999372300,4.596372314453125,0.1214822456240654,-0.044668205082416534,0.5833591222763062
1717001413009038600,4.60603857421875,0.18501035869121552,-0.16134002804756165,0.6267293095588684
1717001413018705000,4.615704833984375,0.24365170300006866,-0.1552315652370453,0.7067502737045288
1717001413028371200,4.62537109375,0.2613662779331207,-0.06726955622434616,0.7715001106262207
1717001413038037500,4.63503759765625,0.23571068048477173,0.04634803533554077,0.8191461563110352
1717001413047703800,4.644703857421875,0.19050799310207367,0.1483595222234726,0.8613709807395935
1717001413057370000,4.6543701171875,0.15080291032791138,0.2387649267911911,0.9090170860290527
1717001413067036400,4.664036376953125,0.12453648447990417,0.3303920030593872,0.9554414749145508
1717001413076702700,4.67370263671875,0.09827005118131638,0.459280788898468,0.983540415763855
1717001413086369000,4.683369140625,0.06398624926805496,0.6370373368263245,0.9853729605674744
1717001413096035300,4.693035400390625,0.01572931744158268,0.7909708619117737,0.960328221321106
1717001413105701600,4.70270166015625,-0.03924693539738655,0.8551098108291626,0.9132930040359497
1717001413115368000,4.712367919921875,-0.07711946964263916,0.8160156011581421,0.8632035255432129
1717001413125034200,4.7220341796875,-0.08933641016483307,0.6981220841407776,0.8191461563110352
1717001413134700500,4.731700439453125,-0.08322793990373611,0.5399126410484314,0.7879929542541504
1717001413144367000,4.7413671875,-0.07528692483901978,0.3798706531524658,0.7684458494186401
1717001413154033400,4.751033447265625,-0.08017370104789734,0.253425270318985,0.7574505805969238
1717001413163699700,4.76069970703125,-0.10277505218982697,0.18195612728595734,0.7537854909896851
1717001413173366000,4.770365966796875,-0.13514995574951172,0.17890189588069916,0.7678350210189819
1717001413183032300,4.7800322265625,-0.16874656081199646,0.2515927255153656,0.8050966858863831
1717001413192698600,4.78969873046875,-0.2029540091753006,0.3945309817790985,0.8570950627326965
1717001413202365000,4.799364990234375,-0.23838314414024353,0.5777851343154907,0.9016869068145752
1717001413212031200,4.80903125,-0.2689255177974701,0.7634826898574829,0.9218448400497437
1717001413221697500,4.818697509765625,-0.28602921962738037,0.9278006553649902,0.9096279144287109
1717001413231363800,4.82836376953125,-0.2793098986148834,1.0671501159667969,0.8607601523399353
1717001413241030100,4.838030029296875,-0.2518217861652374,1.1819894313812256,0.7977665066719055
1717001413250696400,4.847696533203125,-0.20906247198581696,1.2430741786956787,0.7275190949440002
1717001413260362800,4.85736279296875,-0.15652960538864136,1.2601778507232666,0.6707102656364441
1717001413270029000,4.867029052734375,-0.0978882759809494,1.249793529510498,0.6505523324012756
1717001413279695400,4.8766953125,-0.04474456235766411,1.2284138202667236,0.6560499668121338
1717001413289362000,4.88636181640625,-0.004428642801940441,1.2070342302322388,0.6627692580223083
1717001413299028200,4.8960283203125,0.02733541466295719,1.2100883722305298,0.6591041684150696
1717001413308694500,4.905694580078125,0.06032116711139679,1.2449066638946533,0.6529957056045532
1717001413318360800,4.91536083984375,0.10010259598493576,1.3108782768249512,0.6700994372367859
1717001413328027100,4.925027099609375,0.15691138803958893,1.4110571146011353,0.7562289237976074
1717001413337693400,4.934693359375,0.22838051617145538,1.5039058923721313,0.9151255488395691
1717001413347359700,4.94435986328125,0.29679539799690247,1.5197880268096924,1.0928821563720703
1717001413357026000,4.954026123046875,0.3719296157360077,1.414722204208374,1.215051531791687
1717001413366692400,4.9636923828125,0.4501180648803711,1.2027583122253418,1.2376528978347778
1717001413376358700,4.973358642578125,0.5044834613800049,0.9412392973899841,1.160075306892395
1717001413386025000,4.98302490234375,0.5081485509872437,0.6578061580657959,0.9536089301109314
1717001413395691300,4.992691162109375,0.4623350203037262,0.4220190942287445,0.652384877204895
1717001413405357600,5.002357666015625,0.3847574293613434,0.2925194799900055,0.36162158846855164
1717001413415023900,5.01202392578125,0.28518930077552795,0.30412557721138,0.18081079423427582
1717001413424690200,5.021690185546875,0.15263545513153076,0.4782170355319977,0.17775654792785645
1717001413434356500,5.0313564453125,0.005955760832875967,0.8367843627929688,0.3695625960826874
1717001413444022800,5.041022705078125,-0.13270656764507294,1.34080970287323,0.6713211536407471
1717001413453689000,5.050689208984375,-0.24998924136161804,1.8783552646636963,0.8754204511642456
1717001413463355400,5.06035546875,-0.3446705639362335,2.3652005195617676,0.7916580438613892
1717001413473022000,5.07002197265625,-0.4643966257572174,2.692614793777466,0.39949411153793335
1717001413482688300,5.079688232421875,-0.6390989422798157,2.7353739738464355,-0.1582094430923462
1717001413492354600,5.0893544921875,-0.834570050239563,2.5069172382354736,-0.6560499668121338
1717001413502020900,5.099020751953125,-1.019656777381897,2.145906448364258,-0.9297095537185669
1717001413511687200,5.108687255859375,-1.1748119592666626,1.812383770942688,-0.9657495021820068
1717001413521353500,5.118353515625,-1.2982031106948853,1.5882028341293335,-0.8936695456504822
1717001413531019800,5.128019775390625,-1.423426866531372,1.4965758323669434,-0.948034942150116
1717001413540686000,5.13768603515625,-1.598129153251648,1.4825263023376465,-1.3053805828094482
1717001413550352400,5.147352294921875,-1.8100931644439697,1.40617036819458,-1.875988245010376
1717001413560018700,5.157018798828125,-1.9945690631866455,1.2595670223236084,-2.3811590671539307
1717001413569685000,5.16668505859375,-2.109408378601074,1.1264023780822754,-2.6151134967803955
1717001413579351300,5.176351318359375,-2.201646327972412,1.1178505420684814,-2.711627244949341
1717001413589017600,5.186017578125,-2.282278060913086,1.2467392683029175,-2.807530403137207
1717001413598684000,5.195683837890625,-2.253568172454834,1.3499724864959717,-2.7458348274230957
1717001413608350200,5.20535009765625,-2.111851692199707,1.1728267669677734,-2.3573360443115234
1717001413618016500,5.2150166015625,-1.920656442642212,0.6382590532302856,-1.8662147521972656
1717001413627683000,5.22468310546875,-1.705027461051941,-0.15095563232898712,-1.604084849357605
1717001413637349400,5.234349365234375,-1.4612993001937866,-1.0043092966079712,-1.6248537302017212
1717001413647015700,5.244015625,-1.2358967065811157,-1.7177788019180298,-1.762905240058899
1717001413656682000,5.253681884765625,-1.0837957859039307,-2.164384603500366,-1.8711014986038208
1717001413666348300,5.263348388671875,-0.987892746925354,-2.3183181285858154,-1.9358513355255127
1717001413676014600,5.2730146484375,-0.9011524319648743,-2.064816474914551,-2.0225915908813477
1717001413685681000,5.282680908203125,-0.9029849767684937,-1.124035358428955,-2.35855770111084
1717001413695347200,5.29234716796875,-1.002553105354309,0.4250733256340027,-2.819136381149292
1717001413705013500,5.302013427734375,-1.066081166267395,1.8203247785568237,-2.8783886432647705
1717001413714679800,5.3116796875,-1.0269869565963745,2.673067569732666,-2.5173778533935547
1717001413724346000,5.32134619140625,-0.9115368127822876,2.9571115970611572,-2.0158722400665283
1717001413734012400,5.331012451171875,-0.7692093849182129,2.7695815563201904,-1.5656014680862427
1717001413743678700,5.3406787109375,-0.649483323097229,2.261967420578003,-1.2174185514450073
1717001413753345000,5.350344970703125,-0.6006155610084534,1.5924787521362305,-0.9785773158073425
1717001413763011300,5.36001123046875,-0.6305471062660217,0.9198595881462097,-0.8515210747718811
1717001413772677600,5.369677734375,-0.6977402567863464,0.3426089584827423,-0.8154810667037964
1717001413782344000,5.379343994140625,-0.7368345260620117,-0.16928105056285858,-0.8496885299682617
1717001413792010200,5.38901025390625,-0.7117897868156433,-0.5748836398124695,-0.9107732772827148
1717001413801676500,5.398676513671875,-0.6482616662979126,-0.8784747123718262,-0.9492566585540771
1717001413811342800,5.4083427734375,-0.5517477989196777,-1.1228135824203491,-0.9535325765609741
1717001413821009400,5.418009521484375,-0.4375193417072296,-1.290185809135437,-0.9211576581001282
1717001413830675700,5.42767578125,-0.3232909142971039,-1.3885321617126465,-0.8435800671577454
1717001413840342000,5.437342041015625,-0.20051060616970062,-1.4178528785705566,-0.7366818189620972
1717001413850008300,5.44700830078125,-0.038636088371276855,-1.3866996765136719,-0.624285876750946
1717001413859674600,5.456674560546875,0.19417306780815125,-1.3188955783843994,-0.5210527181625366
1717001413869341000,5.4663408203125,0.5026509165763855,-1.24681556224823,-0.41232189536094666
1717001413879007200,5.47600732421875,0.852055549621582,-1.229711890220642,-0.2644968628883362
1717001413888673500,5.485673583984375,1.1745829582214355,-1.3017919063568115,-0.010995250195264816
1717001413898339800,5.49533984375,1.4109808206558228,-1.4398432970046997,0.3817795515060425
1717001413908006100,5.505006103515625,1.5337611436843872,-1.595609426498413,0.8319739699363708
1717001413917672400,5.51467236328125,1.5093271732330322,-1.722741961479187,1.1967260837554932
1717001413927338800,5.5243388671875,1.3162994384765625,-1.8131474256515503,1.3799803256988525
1717001413937005000,5.534005126953125,0.9846094250679016,-1.7508409023284912,1.2883532047271729
1717001413946671400,5.54367138671875,0.5771743059158325,-1.1545777320861816,0.6774296164512634
1717001413956337700,5.553337646484375,-0.056961506605148315,0.6608603596687317,-1.0567657947540283
1717001413966004000,5.56300390625,-0.9298622608184814,2.5637259483337402,-3.1990835666656494
1717001413975670300,5.572670166015625,-1.4667969942092896,1.8435369729995728,-2.8820536136627197
1717001413985336600,5.582336669921875,-1.6414992809295654,0.06345175951719284,-0.9223793745040894
1717001413995003000,5.5920029296875,-1.5535372495651245,-0.19066070020198822,0.7207997441291809
1717001414004669400,5.60166943359375,-1.3458492755889893,0.6229878664016724,1.431902289390564
1717001414014335500,5.61133544921875,-1.108229637145996,1.6853275299072266,1.2718603610992432
1717001414024001800,5.621001708984375,-0.8333483934402466,2.6419143676757812,0.5815265774726868
1717001414033668400,5.63066845703125,-0.6055023670196533,3.1171536445617676,-0.08796200156211853
1717001414043334700,5.640334716796875,-0.49799323081970215,2.841050624847412,-0.30969956517219543
1717001414053001000,5.6500009765625,-0.41736137866973877,1.8099404573440552,0.042759306728839874
1717001414062667300,5.659667236328125,-0.1901262104511261,0.4250733256340027,0.7372926473617554
1717001414072333600,5.66933349609375,0.18134528398513794,-0.8399913311004639,1.478326678276062
1717001414082000000,5.678999755859375,0.565568208694458,-1.8094823360443115,2.098947525024414
1717001414091666200,5.688666259765625,0.8001335263252258,-2.2266910076141357,2.356114149093628
1717001414101332500,5.69833251953125,0.7170583009719849,-1.741678237915039,2.006709575653076
1717001414110998800,5.707998779296875,0.29618456959724426,-0.348259299993515,1.015304446220398
1717001414120665000,5.7176650390625,-0.07101099193096161,0.8227348923683167,0.08918370306491852
1717001414130331400,5.727331298828125,0.03161134570837021,1.0934165716171265,-0.21379654109477997
1717001414139997700,5.736997802734375,0.44156619906425476,0.9418501257896423,-0.12400199472904205
1717001414149664000,5.7466640625,0.9137511253356934,0.8325084447860718,0.033596597611904144
1717001414159330300,5.756330322265625,1.3498960733413696,0.8447254300117493,0.05864133685827255
1717001414168996600,5.76599658203125,1.699300765991211,0.7702020406723022,-0.06658235192298889
1717001414178663000,5.775662841796875,1.834298014640808,0.3591018319129944,-0.07146912813186646
1717001414188329200,5.7853291015625,1.6510437726974487,-0.3262687921524048,0.4556920528411865
1717001414197995500,5.79499560546875,1.2515497207641602,-0.9627716541290283,1.2419288158416748
1717001414207661800,5.804661865234375,0.8630508184432983,-1.3298908472061157,1.6566941738128662
1717001414217328000,5.814328125,0.5802285671234131,-1.4257938861846924,1.659137487411499
1717001414226994700,5.82399462890625,0.38964420557022095,-1.270027756690979,1.4581687450408936
1717001414236661000,5.833660888671875,0.3022930324077606,-0.8570950627326965,1.2168841361999512
1717001414246327300,5.843327392578125,0.33466795086860657,0.07017108052968979,0.9591065645217896
1717001414255993600,5.85299365234375,0.4605024755001068,1.6193560361862183,0.7018635272979736
1717001414265660000,5.862659912109375,0.6516976952552795,3.0597338676452637,0.6432221531867981
1717001414275326200,5.872326171875,0.8404494524002075,3.7372398376464844,0.9114604592323303
1717001414284992500,5.881992431640625,0.9638406038284302,3.5270321369171143,1.362265706062317
1717001414294658800,5.891658935546875,0.9931612610816956,2.637638568878174,1.733049988746643
1717001414304325000,5.9013251953125,0.9455152153968811,1.382958173751831,1.8723231554031372
1717001414313991400,5.910991455078125,0.8648833632469177,0.08360971510410309,1.7587056159973145
1717001414323657700,5.92065771484375,0.7952467799186707,-0.9810970425605774,1.4801592826843262
1717001414333324000,5.930323974609375,0.7702020406723022,-1.6279842853546143,1.204667091369629
1717001414342990300,5.939990234375,0.7604284882545471,-1.863236904144287,1.04401433467865
1717001414352656600,5.94965673828125,0.7176691889762878,-1.7520626783370972,1.0293539762496948
1717001414362323000,5.959322998046875,0.6419241428375244,-1.2920182943344116,1.1551885604858398
1717001414371989200,5.9689892578125,0.5619031190872192,-0.5241833329200745,1.3738718032836914
1717001414381655600,5.978655517578125,0.5093702673912048,0.3865899443626404,1.5760623216629028
1717001414391321900,5.98832177734375,0.4910448491573334,1.159998893737793,1.6438663005828857
1717001414400988200,5.99798828125,0.49532076716423035,1.6566177606582642,1.585224986076355
1717001414410654500,6.007654541015625,0.538080096244812,1.9125627279281616,1.4728291034698486
1717001414420320800,6.01732080078125,0.6126034259796143,1.9388291835784912,1.345162034034729
1717001414429987000,6.026987060546875,0.6975111961364746,1.7451906204223633,1.206499695777893
1717001414439653400,6.0366533203125,0.7921925187110901,1.4220523834228516,1.0525661706924438
1717001414449319700,6.046319580078125,0.8978691101074219,1.1166287660598755,0.9261208176612854
1717001414458986000,6.055986083984375,0.9925504326820374,0.9326874017715454,0.8900808095932007
1717001414468652500,6.065652587890625,1.0676846504211426,0.9326874017715454,1.0146936178207397
1717001414478318800,6.07531884765625,1.1159416437149048,1.0958600044250488,1.330501675605774
1717001414487985200,6.084985107421875,1.119606614112854,1.2766708135604858,1.7477103471755981
1717001414497651500,6.0946513671875,1.0682954788208008,1.3310362100601196,2.1111645698547363
1717001414507317800,6.10431787109375,0.967505693435669,1.3059914112091064,2.216840982437134
1717001414516984000,6.113984130859375,0.7989118695259094,1.4263283014297485,1.7556513547897339
1717001414526650400,6.123650390625,0.5124244689941406,1.4501514434814453,0.7959339618682861
1717001414536316700,6.133316650390625,0.23693238198757172,1.1233481168746948,-0.05803048983216286
1717001414545983000,6.14298291015625,0.10987614840269089,0.6889593601226807,-0.5259394645690918
1717001414555649300,6.152649169921875,0.12575818598270416,0.32672691345214844,-0.6908682584762573
1717001414565315600,6.162315673828125,0.18317782878875732,0.09032903611660004,-0.6994200944900513
1717001414574982000,6.17198193359375,0.1856212168931961,0.0017561858985573053,-0.5900784730911255
1717001414584648200,6.181648193359375,0.11903885751962662,0.10926530510187149,-0.312142938375473
1717001414594314500,6.191314453125,0.0022906772792339325,0.41591063141822815,0.13988402485847473
1717001414603980800,6.200980712890625,-0.15591876208782196,0.7433247566223145,0.5955760478973389
1717001414613647000,6.210647216796875,-0.32939937710762024,0.9394067525863647,0.8522082567214966
1717001414623313400,6.2203134765625,-0.488219678401947,1.1880979537963867,0.8509102463722229
1717001414632979700,6.229979736328125,-0.6562026739120483,1.9608197212219238,0.42331716418266296
1717001414642646000,6.23964599609375,-0.8437327742576599,2.81234073638916,-0.4752391576766968
1717001414652312300,6.249312255859375,-1.1045645475387573,3.0676748752593994,-1.368297815322876
1717001414661978600,6.258978515625,-1.4197617769241333,2.8660953044891357,-1.8723231554031372
1717001414671645000,6.26864501953125,-1.7062491178512573,2.4580492973327637,-1.9285211563110352
1717001414681311200,6.278311279296875,-1.9878497123718262,2.0964276790618896,-1.8184922933578491
1717001414690977500,6.2879775390625,-2.351303815841675,2.0878758430480957,-1.9022547006607056
1717001414700643800,6.297643798828125,-2.7374355792999268,2.30228328704834,-2.1148295402526855
1717001414710310100,6.30731005859375,-2.9939913749694824,2.3987972736358643,-2.1325440406799316
1717001414719976400,6.3169765625,-3.0892837047576904,2.3438210487365723,-1.9260777235031128
1717001414729642800,6.326642822265625,-3.050800323486328,2.10925555229187,-1.7238109111785889
1717001414739309300,6.336309326171875,-2.89992094039917,1.458092451095581,-1.6120258569717407
1717001414748975600,6.3459755859375,-2.6665773391723633,0.2931303381919861,-1.5149011611938477
1717001414758642000,6.355641845703125,-2.3629097938537598,-1.1130400896072388,-1.4648116827011108
1717001414768308200,6.36530810546875,-1.990293025970459,-2.409334182739258,-1.4849697351455688
1717001414777974500,6.374974609375,-1.6109569072723389,-3.3078906536102295,-1.5265072584152222
1717001414787640800,6.384640869140625,-1.284153699874878,-3.662792921066284,-1.5930896997451782
1717001414797307100,6.39430712890625,-1.0782980918884277,-3.341487169265747,-1.748855710029602
1717001414806973400,6.403973388671875,-1.0422581434249878,-2.322593927383423,-1.9731130599975586
1717001414816639700,6.4136396484375,-1.099066972732544,-1.0293539762496948,-2.0946714878082275
1717001414826306000,6.42330615234375,-1.1406044960021973,0.013362283818423748,-2.0458037853240967
1717001414835972400,6.432972412109375,-1.1198357343673706,0.5747309327125549,-1.8778208494186401
1717001414845638700,6.442638671875,-1.052642583847046,0.6840725541114807,-1.6395140886306763
1717001414855305000,6.452304931640625,-0.9573503732681274,0.5350258350372314,-1.3750171661376953
1717001414864971300,6.46197119140625,-0.858393132686615,0.31084489822387695,-1.1172395944595337
1717001414874637600,6.471637451171875,-0.7808154821395874,0.10071343928575516,-0.8863393664360046
1717001414884304000,6.481303955078125,-0.728893518447876,-0.025121092796325684,-0.7159129977226257
1717001414893970200,6.49097021484375,-0.6971294283866882,-0.0623827762901783,-0.6181774139404297
1717001414903636500,6.500636474609375,-0.6940752267837524,-0.09781191498041153,-0.5717530250549316
1717001414913302800,6.510302734375,-0.7026270627975464,-0.21020781993865967,-0.5632011890411377
1717001414922969000,6.519968994140625,-0.7111788988113403,-0.44660571217536926,-0.5809157490730286
1717001414932635400,6.529635498046875,-0.7014053463935852,-0.8027296662330627,-0.6084038615226746
1717001414942301700,6.5393017578125,-0.6739172339439392,-1.2413179874420166,-0.624285876750946
1717001414951968000,6.548968017578125,-0.6146650314331055,-1.668911099433899,-0.6212316751480103
1717001414961634300,6.55863427734375,-0.5022691488265991,-2.004953384399414,-0.5760289430618286
1717001414971300600,6.568300537109375,-0.3239017724990845,-2.230966806411743,-0.46302223205566406
1717001414980967000,6.577966796875,-0.08689302206039429,-2.360466480255127,-0.2858765125274658
1717001414990633200,6.58763330078125,0.19661645591259003,-2.406890869140625,-0.0647498071193695
1717001415000299500,6.597299560546875,0.49532076716423035,-2.406890869140625,0.18691925704479218
1717001415009965800,6.6069658203125,0.7598176598548889,-2.4148318767547607,0.47585001587867737
1717001415019632000,6.616632080078125,0.9387958645820618,-2.485079288482666,0.8063184022903442
1717001415029298400,6.62629833984375,0.9992697834968567,-2.5589919090270996,1.1124292612075806
1717001415038964700,6.63596484375,0.9552887678146362,-2.502183198928833,1.3085111379623413
1717001415048631000,6.645631103515625,0.8282325267791748,-2.3018252849578857,1.362265706062317
1717001415058297600,6.655297607421875,0.6358156204223633,-1.9676917791366577,1.2370420694351196
1717001415067964000,6.6649638671875,0.406137079000473,-1.330501675605774,0.6444438695907593
1717001415077630200,6.674630126953125,0.010842538438737392,0.4091913104057312,-0.91566002368927
1717001415087296500,6.684296630859375,-0.8235748410224915,3.1140992641448975,-3.4910683631896973
1717001415096962800,6.693962890625,-1.5761386156082153,2.7555320262908936,-3.8478033542633057
1717001415106629000,6.703629150390625,-1.9835737943649292,-0.3268796503543854,-1.7482448816299438
1717001415116295400,6.71329541015625,-2.1625521183013916,-1.7520626783370972,0.2602209448814392
1717001415125961700,6.722961669921875,-2.014116048812866,-1.1582427024841309,1.3158413171768188
1717001415135628000,6.7326279296875,-1.6231738328933716,-0.031229566782712936,1.3909755945205688
1717001415145294300,6.74229443359375,-1.1314418315887451,0.852055549621582,0.7372926473617554
1717001415154960600,6.751960693359375,-0.6873558759689331,1.3878449201583862,-0.10628741979598999
1717001415164627000,6.761626953125,-0.39414918422698975,1.5698775053024292,-0.6139014959335327
1717001415174293200,6.771293212890625,-0.2970244884490967,1.3182083368301392,-0.6297835111618042
1717001415183959600,6.78095947265625,-0.3507790267467499,0.7341620326042175,-0.09284878522157669
1717001415193625900,6.7906259765625,-0.30252209305763245,-0.08559497445821762,0.8845831751823425
1717001415203292200,6.800292236328125,0.05360184609889984,-0.9817079305648804,1.7990214824676514
1717001415212958500,6.80995849609375,0.5814502239227295,-1.6011070013046265,2.408036231994629
1717001415222624800,6.819624755859375,1.0945619344711304,-1.8082605600357056,2.6505424976348877
1717001415232291000,6.829291015625,1.462291955947876,-1.4062467813491821,2.434302568435669
1717001415241957400,6.838957275390625,1.4702329635620117,0.1471378356218338,1.5992745161056519
1717001415251623700,6.848623779296875,0.9901070594787598,2.485537528991699,0.20035789906978607
1717001415261290000,6.8582900390625,0.44339874386787415,3.566737174987793,-0.6951441764831543
1717001415270956300,6.867956298828125,0.21860696375370026,3.140976667404175,-0.7953231334686279
1717001415280622600,6.87762255859375,0.3591018319129944,2.1129207611083984,-0.5595360994338989
1717001415290289000,6.887288818359375,0.745768129825592,1.113574504852295,-0.444085955619812
1717001415299955200,6.896955078125,1.1532032489776611,0.07994463294744492,-0.4825693368911743
1717001415309621500,6.90662158203125,1.3694431781768799,-1.0562312602996826,-0.29259583353996277
1717001415319287800,6.916287841796875,1.3071367740631104,-2.001899242401123,0.20035789906978607
1717001415328954000,6.9259541015625,1.0750148296356201,-2.5644896030426025,0.7293516397476196
1717001415338620400,6.935620361328125,0.8441145420074463,-2.7837836742401123,1.1655728816986084
1717001415348286700,6.94528662109375,0.6816291809082031,-2.7587389945983887,1.469774842262268
1717001415357953000,6.954953125,0.5967214107513428,-2.5583810806274414,1.612713098526001
1717001415367619300,6.964619384765625,0.5869478583335876,-2.135063886642456,1.6267626285552979
1717001415377285600,6.97428564453125,0.6425349712371826,-0.9505546689033508,1.5045931339263916
1717001415386952000,6.983951904296875,0.7353837490081787,1.0091196298599243,1.2370420694351196
1717001415396618200,6.9936181640625,0.8428928852081299,2.5087497234344482,1.016526222229004
1717001415406284500,7.003284423828125,0.9375742077827454,3.1513609886169434,0.9786536693572998
1717001415415950800,7.012950927734375,0.9962155222892761,3.2326037883758545,1.1148725748062134
1717001415425617200,7.0226171875,1.001102328300476,2.9772696495056152,1.3702067136764526
1717001415435283500,7.032283447265625,0.9650623202323914,2.455605983734131,1.6395903825759888
1717001415444949800,7.04194970703125,0.9161945581436157,1.7293086051940918,1.7819178104400635
1717001415454616000,7.051615966796875,0.861218273639679,0.8697701692581177,1.7275524139404297
1717001415464282400,7.061282470703125,0.8001335263252258,0.0164165198802948,1.5229185819625854
1717001415473948700,7.07094873046875,0.7347729206085205,-0.6567371487617493,1.2969050407409668
1717001415483615000,7.080614990234375,0.676131546497345,-1.0434035062789917,1.1649620532989502
1717001415493281300,7.09028125,0.644367516040802,-1.1191484928131104,1.1539667844772339
1717001415502947600,7.099947509765625,0.6449783444404602,-0.8974109888076782,1.2284902334213257
1717001415512614000,7.10961376953125,0.6657471656799316,-0.41056570410728455,1.3457728624343872
1717001415522280200,7.1192802734375,0.7085064649581909,0.22227205336093903,1.4453409910202026
1717001415531946800,7.12894677734375,0.7610393166542053,0.7818081378936768,1.4679423570632935
1717001415541613000,7.138613037109375,0.8074637055397034,1.136786699295044,1.428848147392273
1717001415551279400,7.148279296875,0.8563315272331238,1.2907202243804932,1.3695958852767944
1717001415560945700,7.157945556640625,0.9284114837646484,1.3114891052246094,1.3066786527633667
1717001415570612000,7.167612060546875,1.0120975971221924,1.2241379022598267,1.2407071590423584
1717001415580278300,7.1772783203125,1.096394419670105,1.0854755640029907,1.1893960237503052
1717001415589944600,7.186944580078125,1.1709178686141968,0.9663603901863098,1.1814548969268799
1717001415599611000,7.19661083984375,1.2338351011276245,0.9082534909248352,1.242539644241333
1717001415609277200,7.206277099609375,1.2747619152069092,0.9467368721961975,1.4025816917419434
1717001415618943500,7.215943603515625,1.272929310798645,1.0720369815826416,1.6841822862625122
1717001415628609800,7.22560986328125,1.2130663394927979,1.2192511558532715,2.052523136138916
1717001415638276000,7.235276123046875,1.0823450088500977,1.3908991813659668,2.2070674896240234
1717001415647942400,7.2449423828125,0.8746569156646729,1.5167337656021118,1.5314704179763794
1717001415657608700,7.254608642578125,0.6278746128082275,1.22963547706604,0.3439069986343384
1717001415667275000,7.26427490234375,0.46844348311424255,0.6455891728401184,-0.4679090082645416
1717001415676941300,7.27394140625,0.406137079000473,0.15141376852989197,-0.7989882230758667
1717001415686607600,7.283607666015625,0.3939201235771179,-0.23891763389110565,-0.869235634803772
1717001415696274000,7.29327392578125,0.40430453419685364,-0.5809921026229858,-0.856407880783081
1717001415705940200,7.302940185546875,0.43179264664649963,-0.8308286070823669,-0.7782194018363953
1717001415715606500,7.3126064453125,0.44523128867149353,-0.8393805027008057,-0.5540384650230408
1717001415725272800,7.32227294921875,0.4244624972343445,-0.5064687132835388,-0.12033691257238388
1717001415734939100,7.331939208984375,0.3817031681537628,0.0035887276753783226,0.395218163728714
1717001415744605400,7.34160546875,0.3077906668186188,0.3010713458061218,0.7036960124969482
1717001415754271700,7.351271728515625,0.18012358248233795,0.21677441895008087,0.6969767212867737
1717001415763938000,7.36093798828125,-0.0459662564098835,-0.07704310864210129,0.4856235682964325
1717001415773604400,7.370604248046875,-0.3703261613845825,-0.2853420376777649,0.19058434665203094
1717001415783270700,7.380270751953125,-0.7350019812583923,-0.00007635590736754239,-0.22540263831615448
1717001415792937000,7.38993701171875,-1.1277767419815063,0.8398386240005493,-0.8124268651008606
1717001415802603300,7.399603271484375,-1.5205515623092651,1.5411676168441772,-1.3053805828094482
1717001415812269600,7.40926953125,-1.8577392101287842,1.9412726163864136,-1.5234531164169312
1717001415821935900,7.418935791015625,-2.152167558670044,2.2564697265625,-1.5900354385375977
1717001415831602200,7.428602294921875,-2.4569804668426514,2.6712350845336914,-1.7561858892440796
1717001415841268500,7.4382685546875,-2.760647773742676,3.1281487941741943,-2.03480863571167
1717001415850934800,7.447934814453125,-2.9512321949005127,3.3254525661468506,-2.083676338195801
1717001415860601000,7.45760107421875,-2.995824098587036,3.222830057144165,-1.7928366661071777
1717001415870267400,7.467267333984375,-2.900531768798828,2.8428831100463867,-1.4098354578018188
1717001415879933700,7.47693359375,-2.706282377243042,2.070772171020508,-1.1722159385681152
1717001415889600000,7.48660009765625,-2.4551477432250977,0.699343740940094,-1.0873081684112549
1717001415899266300,7.496266357421875,-2.1674387454986572,-1.0372949838638306,-1.0347752571105957
1717001415908932600,7.5059326171875,-1.8833948373794556,-2.603583812713623,-0.9608627557754517
1717001415918599000,7.515598876953125,-1.6329474449157715,-3.707995653152466,-0.9345963001251221
1717001415928265200,7.52526513671875,-1.3910518884658813,-4.248595237731934,-1.073258638381958
1717001415937931500,7.534931640625,-1.2169604301452637,-4.078779697418213,-1.4226632118225098
1717001415947597800,7.544597900390625,-1.1619842052459717,-3.384246587753296,-1.73969304561615
1717001415957264100,7.55426416015625,-1.1552648544311523,-2.626796007156372,-1.8332289457321167
1717001415966930400,7.563930419921875,-1.108229637145996,-2.077033281326294,-1.7922258377075195
1717001415976596700,7.5735966796875,-1.0123265981674194,-1.7404565811157227,-1.7036529779434204
1717001415986263000,7.583262939453125,-0.8962656259536743,-1.5223077535629272,-1.572320818901062
1717001415995929300,7.592929443359375,-0.775317907333374,-1.35798978805542,-1.387234091758728
1717001416005595600,7.602595703125,-0.669030487537384,-1.2071105241775513,-1.166107416152954
1717001416015262000,7.612261962890625,-0.5853443741798401,-1.0208021402359009,-0.9455915689468384
1717001416024928300,7.62192822265625,-0.5413633584976196,-0.789901852607727,-0.7550072073936462
1717001416034594600,7.631594482421875,-0.567018985748291,-0.5089121460914612,-0.6169557571411133
1717001416044260900,7.6412607421875,-0.6696413159370422,-0.193104088306427,-0.5412106513977051
1717001416053927200,7.65092724609375,-0.8046385645866394,0.1214822456240654,-0.5143333673477173
1717001416063593500,7.660593505859375,-0.9078717231750488,0.3432198166847229,-0.5137225389480591
1717001416073259800,7.670259765625,-0.9378032684326172,0.3859791159629822,-0.5210527181625366
1717001416082926000,7.679926025390625,-0.8834378719329834,0.2650313675403595,-0.5265503525733948
1717001416092592400,7.68959228515625,-0.7569924592971802,0.02802261710166931,-0.5161659121513367
1717001416102258700,7.6992587890625,-0.5786250829696655,-0.3091650605201721,-0.4837910234928131
1717001416111925000,7.708925048828125,-0.36482852697372437,-0.7049940824508667,-0.41537612676620483
1717001416121591300,7.71859130859375,-0.12781979143619537,-1.0886061191558838,-0.29565006494522095
1717001416131257600,7.728257568359375,0.12942326068878174,-1.410522699356079,-0.1172826737165451
1717001416140924000,7.737923828125,0.3835357129573822,-1.63592529296875,0.1172826737165451
1717001416150590200,7.747590087890625,0.6016082167625427,-1.778939962387085,0.40193748474121094
1717001416160256500,7.757256591796875,0.7353837490081787,-1.9114937782287598,0.7317950129508972
1717001416169922800,7.7669228515625,0.7787538766860962,-2.094748020172119,1.054398775100708
1717001416179589000,7.776589111328125,0.8025769591331482,-2.3012142181396484,1.2907966375350952
1717001416189255400,7.78625537109375,0.8380060791969299,-2.4319355487823486,1.419074535369873
1717001416198921700,7.795921630859375,0.8471688032150269,-2.409945249557495,1.437399983406067
1717001416208588000,7.805588134765625,0.769591212272644,-2.1045215129852295,1.3036243915557861
1717001416218254300,7.81525439453125,0.5747309327125549,-1.2584216594696045,0.7794411182403564
1717001416227920600,7.824920654296875,0.050547610968351364,0.8673267364501953,-1.2662863731384277
1717001416237587000,7.8345869140625,-0.9097042679786682,3.2087807655334473,-3.8386404514312744
1717001416247253200,7.844253173828125,-1.3971604108810425,2.310835123062134,-2.9443602561950684
1717001416256919600,7.85391943359375,-1.6140111684799194,0.2937411665916443,-0.6829272508621216
1717001416266585900,7.8635859375,-1.8791189193725586,-0.348259299993515,1.0708916187286377
1717001416276252200,7.873252197265625,-2.0037317276000977,0.1856212168931961,2.0164830684661865
1717001416285918500,7.88291845703125,-1.9102721214294434,0.9412392973899841,2.0390844345092773
1717001416295584800,7.892584716796875,-1.6830369234085083,1.430604338645935,1.362265706062317
1717001416305251000,7.9022509765625,-1.4515258073806763,1.6083608865737915,0.48806697130203247
1717001416314917400,7.91191748046875,-1.261552333831787,1.550330400466919,-0.1704263836145401
1717001416324583700,7.921583740234375,-1.0135482549667358,1.0445488691329956,-0.24006296694278717
1717001416334250000,7.93125,-0.5529694557189941,-0.2450261116027832,0.2235700935125351
1717001416343916300,7.940916259765625,0.10621106624603271,-1.8015413284301758,0.7739434838294983
1717001416353582600,7.95058251953125,0.7243884801864624,-2.6396236419677734,1.1674054861068726
1717001416363249000,7.960248779296875,1.096394419670105,-2.348249673843384,1.4093009233474731
1717001416372915200,7.969915283203125,1.1098331212997437,-0.8662577867507935,1.2883532047271729
1717001416382581500,7.97958154296875,0.7378271222114563,2.028012990951538,0.6432221531867981
1717001416392247800,7.989247802734375,0.3603235185146332,4.109245777130127,-0.016492875292897224
1717001416401914000,7.9989140625,0.30901235342025757,4.244243144989014,-0.32130566239356995
1717001416411580400,8.008580322265624,0.5441885590553284,3.7347965240478516,-0.6145123243331909
1717001416421246700,8.018246826171875,0.9375742077827454,2.5350160598754883,-1.1038010120391846
1717001416430913000,8.0279130859375,1.2014602422714233,-0.057496000081300735,-1.0781453847885132
1717001416440579300,8.037579345703126,1.217953085899353,-2.5058481693267822,-0.3640649616718292
1717001416450245600,8.04724560546875,1.051802635192871,-3.8521554470062256,0.3671191930770874
1717001416459912000,8.056911865234374,0.875267744064331,-4.3377790451049805,0.8246437907218933
1717001416469578200,8.066578125,0.8068528771400452,-4.24309778213501,1.0910495519638062
1717001416479244500,8.07624462890625,0.7659261226654053,-3.8607072830200195,1.2168841361999512
1717001416488910800,8.085910888671876,0.7005654573440552,-3.309112310409546,1.2791905403137207
1717001416498577200,8.0955771484375,0.6920135617256165,-2.5675437450408936,1.3152304887771606
1717001416508243500,8.105243408203124,0.7842515110969543,-1.7856591939926147,1.3647091388702393
1717001416517909800,8.11490966796875,0.9278006553649902,-0.4966951906681061,1.543076515197754
1717001416527576000,8.124576171875,1.0756256580352783,2.7530887126922607,1.8332289457321167
1717001416537242400,8.134242431640626,1.1379320621490479,5.355985164642334,1.9853299856185913
1717001416546908700,8.14390869140625,1.0994486808776855,5.9069695472717285,1.9651719331741333
1717001416556575000,8.153574951171874,1.0505809783935547,5.34437894821167,1.8753774166107178
1717001416566241300,8.1632412109375,1.0420290231704712,4.482473373413086,1.7672574520111084
1717001416575907600,8.172907470703125,1.0609652996063232,3.6712684631347656,1.6609700918197632
1717001416585574000,8.182573974609374,1.0322555303573608,2.814784049987793,1.5314704179763794
1717001416595240200,8.192240234375,0.9186379313468933,1.7390820980072021,1.3671525716781616
1717001416604906500,8.201906494140625,0.7665369510650635,0.5228089094161987,1.1667946577072144
1717001416614572800,8.21157275390625,0.6321505308151245,-0.5669426321983337,0.9694909453392029
1717001416624239000,8.221239013671875,0.5515187382698059,-1.2724711894989014,0.837471604347229
1717001416633905400,8.230905517578124,0.5313607454299927,-1.5418548583984375,0.7696675658226013
1717001416643571700,8.24057177734375,0.5460211038589478,-1.4728291034698486,0.731184184551239
1717001416653238000,8.250238037109375,0.5637356638908386,-1.179011583328247,0.7036960124969482
1717001416662904300,8.259904296875,0.5961105823516846,-0.7581378221511841,0.6707102656364441
1717001416672570600,8.269570556640625,0.6639146208763123,-0.31527355313301086,0.6151232123374939
1717001416682237000,8.27923681640625,0.7585959434509277,0.06650599837303162,0.5369347333908081
1717001416691903200,8.2889033203125,0.856942355632782,0.3859791159629822,0.46424391865730286
1717001416701569500,8.298569580078125,0.9485694169998169,0.652919352054596,0.42453885078430176
1717001416711235800,8.30823583984375,1.0163735151290894,0.875878632068634,0.4416425824165344
1717001416720902100,8.317902099609375,1.0554677248001099,1.073258638381958,0.5454866290092468
1717001416730568400,8.327568359375,1.0823450088500977,1.2840009927749634,0.7879929542541504
1717001416740234800,8.33723486328125,1.125104308128357,1.5222313404083252,1.179011583328247
1717001416749901000,8.346901123046875,1.1770262718200684,1.6670022010803223,1.5485742092132568
1717001416759567400,8.3565673828125,1.1770262718200684,1.5326157808303833,1.6585266590118408
1717001416769233700,8.366233642578125,1.0957835912704468,1.1202938556671143,1.4819917678833008
1717001416778900000,8.37589990234375,0.935741662979126,0.5900021195411682,1.1374739408493042
1717001416788566300,8.385566162109376,0.7078956365585327,0.14408360421657562,0.7275190949440002
1717001416798232600,8.395232666015625,0.4605024755001068,-0.049554985016584396,0.3054236173629761
1717001416807899000,8.40489892578125,0.255257785320282,-0.02695363573729992,-0.06169557198882103
1717001416817565000,8.41456494140625,0.12331479042768478,0.012140588834881783,-0.26877278089523315
1717001416827231500,8.4242314453125,0.03894151374697685,0.0689493864774704,-0.2858765125274658
1717001416836897500,8.4338974609375,-0.03436015918850899,0.21860696375370026,-0.14965757727622986
1717001416846563800,8.443563720703125,-0.10094250738620758,0.4201865494251251,0.05497625470161438
1717001416856230100,8.453230224609374,-0.17485502362251282,0.5472427606582642,0.1973036676645279
1717001416865896400,8.462896484375,-0.3080197274684906,0.6510868072509766,0.21379654109477997
1717001416875562800,8.472562744140625,-0.4869979918003082,0.8746569156646729,0.1459924876689911
1717001416885229000,8.48222900390625,-0.6629219651222229,1.225359559059143,-0.013438640162348747
1717001416894895400,8.491895263671875,-0.830294132232666,1.712815761566162,-0.33535513281822205
1717001416904561700,8.501561767578124,-1.0563076734542847,2.314500331878662,-0.8270871639251709
1717001416914228000,8.51122802734375,-1.3647854328155518,2.7408716678619385,-1.2742273807525635
1717001416923894300,8.520894287109375,-1.657381296157837,2.9491705894470215,-1.4965758323669434
1717001416933560600,8.530560546875,-1.9102721214294434,3.1800708770751953,-1.5521628856658936
1717001416943227000,8.540226806640625,-2.1625521183013916,3.592392683029175,-1.5753750801086426
1717001416952893200,8.54989306640625,-2.3965065479278564,4.001736640930176,-1.6346272230148315
1717001416962559500,8.5595595703125,-2.5553267002105713,4.108634948730469,-1.6688346862792969
1717001416972225800,8.569225830078125,-2.6439759731292725,3.8105416297912598,-1.619966983795166
1717001416981892000,8.57889208984375,-2.6470303535461426,3.1831250190734863,-1.5649906396865845
1717001416991558400,8.588558349609375,-2.5247843265533447,2.2686867713928223,-1.5772075653076172
1717001417001224700,8.598224609375,-2.3598556518554688,1.1874871253967285,-1.6126368045806885
1717001417010891000,8.60789111328125,-2.221193313598633,0.06711684167385101,-1.6101933717727661
1717001417020557300,8.617557373046875,-2.080087661743164,-0.9426136612892151,-1.5552171468734741
1717001417030223600,8.6272236328125,-1.8827840089797974,-1.6792954206466675,-1.4397670030593872
1717001417039890000,8.636889892578125,-1.608513593673706,-2.022057056427002,-1.2882769107818604
1717001417049556200,8.64655615234375,-1.3043116331100464,-1.8027629852294922,-1.2094775438308716
1717001417059222500,8.656222412109376,-1.1467130184173584,-0.93284010887146,-1.3017154932022095
1717001417068888800,8.665888916015625,-1.1723686456680298,0.09155073016881943,-1.475196123123169
1717001417078555100,8.67555517578125,-1.2059651613235474,0.6571952700614929,-1.5454435348510742
1717001417088221400,8.685221435546875,-1.1766445636749268,0.7384379506111145,-1.4556490182876587
1717001417097887700,8.6948876953125,-1.0960127115249634,0.5050943493843079,-1.2565127611160278
1717001417107554000,8.704553955078126,-0.983005940914154,0.14164020121097565,-1.018282413482666
1717001417117220400,8.714220458984375,-0.8473978638648987,-0.2047101855278015,-0.8026533126831055
1717001417126886700,8.72388671875,-0.6995728015899658,-0.46187686920166016,-0.629172682762146
1717001417136553000,8.733552978515625,-0.5505260825157166,-0.5950415730476379,-0.499673068523407
1717001417146219300,8.74321923828125,-0.439351886510849,-0.5950415730476379,-0.43797749280929565
1717001417155885600,8.752885498046876,-0.3843756318092346,-0.4392755329608917,-0.4727957844734192
1717001417165551900,8.7625517578125,-0.3617742955684662,-0.18271969258785248,-0.5699204802513123
1717001417175218200,8.77221826171875,-0.3342861533164978,0.07383616268634796,-0.6731536984443665
1717001417184884500,8.781884521484375,-0.282364159822464,0.21555273234844208,-0.7342383861541748
1717001417194550800,8.79155078125,-0.20845162868499756,0.19539476931095123,-0.735460102558136
1717001417204217000,8.801217041015626,-0.12171131372451782,0.030466007068753242,-0.660936713218689
1717001417213883400,8.81088330078125,-0.02214321307837963,-0.24075017869472504,-0.4960079789161682
1717001417223549700,8.8205498046875,0.10193513333797455,-0.5608341693878174,-0.2608317732810974
1717001417233216000,8.830216064453126,0.2650313675403595,-0.8283852338790894,-0.01588202826678753
1717001417242882300,8.83988232421875,0.46661093831062317,-0.9371160268783569,0.18569757044315338
1717001417252548600,8.849548583984374,0.6956786513328552,-0.8509865999221802,0.3408527672290802
1717001417262214700,8.859214599609375,0.9223030209541321,-0.6109235882759094,0.4618005156517029
1717001417271881000,8.868880859375,1.0994486808776855,-0.2871745824813843,0.5515950918197632
1717001417281547300,8.87854736328125,1.194740891456604,0.03229855000972748,0.633448600769043
1717001417291213600,8.888213623046875,1.2387218475341797,0.2943520247936249,0.730573296546936
1717001417300880000,8.8978798828125,1.2655991315841675,0.5325824618339539,0.877863883972168
1717001417310546200,8.907546142578125,1.268653392791748,0.8636616468429565,1.1362522840499878
1717001417320212500,8.91721240234375,1.2197855710983276,1.2259705066680908,1.4007490873336792
1717001417329878800,8.926878662109376,1.1641985177993774,1.2833900451660156,1.3427186012268066
1717001417339545000,8.936545166015625,1.0255361795425415,1.1520578861236572,0.7660024762153625
1717001417349211400,8.94621142578125,0.6462000608444214,1.0048437118530273,-0.3689517378807068
1717001417358877700,8.955877685546875,-0.07773031294345856,1.2003148794174194,-1.5161229372024536
1717001417368544000,8.9655439453125,-0.983005940914154,1.7580183744430542,-1.489856481552124
1717001417378210300,8.975210205078126,-1.9377602338790894,2.3010616302490234,-0.7104153633117676
1717001417387876600,8.984876708984375,-2.7227752208709717,2.5667800903320312,-0.0012216945178806782
1717001417397543000,8.99454296875,-3.100278854370117,2.6858954429626465,0.4367557764053345
1717001417407209200,9.004209228515625,-3.041637659072876,2.7500343322753906,0.5210527181625366
1717001417416875500,9.01387548828125,-2.7160558700561523,2.646801233291626,0.3402419090270996
1717001417426541800,9.023541748046876,-2.2407405376434326,2.332214832305908,0.08063183724880219
1717001417436208000,9.0332080078125,-1.690977931022644,1.8722468614578247,-0.183865025639534
1717001417445874400,9.04287451171875,-1.0966235399246216,1.2168077230453491,-0.37200596928596497
1717001417455540700,9.052540771484376,-0.40514445304870605,0.2143310308456421,-0.3304683566093445
1717001417465207000,9.06220703125,0.36337774991989136,-1.0623397827148438,-0.03237490355968475
1717001417474873300,9.071873291015624,1.0090433359146118,-2.0635948181152344,0.3402419090270996
1717001417484539600,9.08153955078125,1.486725926399231,-2.6139681339263916,0.6786513328552246
1717001417494206000,9.0912060546875,1.8422390222549438,-2.753852128982544,0.9511655569076538
1717001417503872300,9.100872314453126,2.067030668258667,-2.050766944885254,0.9975899457931519
1717001417513538600,9.11053857421875,1.9876205921173096,0.14041851460933685,0.5937435626983643
1717001417523204900,9.120204833984374,1.5862939357757568,2.7213244438171387,-0.04092676565051079
1717001417532871200,9.12987109375,1.0970053672790527,3.9974608421325684,-0.420873761177063
1717001417542537500,9.139537353515625,0.7347729206085205,3.7751123905181885,-0.42698222398757935
1717001417552203800,9.149203857421876,0.6590278148651123,2.9235150814056396,-0.26816195249557495
1717001417561870000,9.1588701171875,0.8270108103752136,1.9082868099212646,-0.1056765764951706
1717001417571536400,9.168536376953124,0.954677939414978,0.6022190451622009,0.14660334587097168
1717001417581202700,9.17820263671875,0.8239566087722778,-0.8051730394363403,0.5668662786483765
1717001417590869000,9.187868896484375,0.5515187382698059,-1.6902906894683838,0.8246437907218933
1717001417600535000,9.19753515625,0.40430453419685364,-1.9127154350280762,0.8081509470939636
1717001417610201300,9.207201416015625,0.41041299700737,-1.6915124654769897,0.6639909744262695
1717001417619867600,9.21686767578125,0.49593162536621094,-1.2101647853851318,0.5118899941444397
1717001417629534000,9.226533935546875,0.6474217176437378,-0.5333459973335266,0.4043808877468109
1717001417639200300,9.2362001953125,0.8215132355690002,0.3438306450843811,0.3836120665073395
1717001417648866600,9.245866455078126,0.9430717825889587,1.5558279752731323,0.4825693368911743
1717001417658532900,9.255532958984375,0.9986588954925537,3.2356579303741455,0.6322268843650818
1717001417668199200,9.26519921875,1.0163735151290894,4.782399654388428,0.6902574300765991
1717001417677865500,9.274865478515625,1.0279796123504639,5.5111403465271,0.660936713218689
1717001417687531800,9.28453173828125,1.0353097915649414,5.238091468811035,0.660936713218689
1717001417697198000,9.294197998046876,1.0145409107208252,4.141620635986328,0.7855495810508728
1717001417706864400,9.303864501953125,0.9888853430747986,2.629697561264038,0.9914814829826355
1717001417716530700,9.31353076171875,1.0127084255218506,1.0702043771743774,1.1466366052627563
1717001417726197000,9.323197021484376,1.0255361795425415,-0.28106608986854553,1.2321553230285645
1717001417735863300,9.33286328125,0.9876636862754822,-1.0635614395141602,1.2272684574127197
1717001417745529600,9.342529541015624,0.9015341997146606,-1.0550096035003662,1.1845091581344604
1717001417755196000,9.35219580078125,0.7634826898574829,-0.24075017869472504,1.0745567083358765
1717001417764862200,9.3618623046875,0.5661790370941162,0.7665369510650635,0.8386932611465454
1717001417774528500,9.371528564453126,0.3591018319129944,1.4739744663238525,0.5913001298904419
1717001417784194800,9.38119482421875,0.22288289666175842,1.8966807126998901,0.4715740978717804
1717001417793861000,9.390861083984374,0.16973918676376343,2.160566806793213,0.4874561131000519
1717001417803527400,9.40052734375,0.1611873209476471,2.3035049438476562,0.5515950918197632
1717001417813193700,9.41019384765625,0.15813308954238892,2.314500331878662,0.5858024954795837
1717001417822860000,9.419860107421876,0.15385715663433075,2.2369227409362793,0.5662553906440735
1717001417832526300,9.4295263671875,0.17951273918151855,2.123915910720825,0.5216635465621948
1717001417842192600,9.439192626953124,0.21616357564926147,2.033510446548462,0.4966188073158264
1717001417851858700,9.448858642578125,0.25770118832588196,1.971204161643982,0.5051707029342651
1717001417861525000,9.45852490234375,0.3010713458061218,1.902178406715393,0.5283828973770142
1717001417871191300,9.46819140625,0.33650049567222595,1.8129947185516357,0.554649293422699
1717001417880857600,9.477857666015625,0.36154523491859436,1.7293086051940918,0.5986303091049194
1717001417890524000,9.48752392578125,0.37803810834884644,1.6401249170303345,0.6536065936088562
1717001417900190200,9.497190185546875,0.37437301874160767,1.5368916988372803,0.6994200944900513
1717001417909856500,9.5068564453125,0.3456631898880005,1.4092246294021606,0.7214106321334839
1717001417919522800,9.516522705078126,0.31084489822387695,1.2546802759170532,0.6890357136726379
1717001417929189000,9.526189208984375,0.31023404002189636,1.1129636764526367,0.569309651851654
1717001417938855400,9.53585546875,0.3566584289073944,1.0451596975326538,0.3811686933040619
1717001417948521700,9.545521728515626,0.4214082658290863,1.0653176307678223,0.1704263836145401
1717001417958188000,9.55518798828125,0.48127129673957825,1.136786699295044,-0.034818295389413834
1717001417967854300,9.564854248046874,0.537469208240509,1.1838220357894897,-0.2376195788383484
1717001417977520600,9.574520751953125,0.5851153135299683,1.09219491481781,-0.4367557764053345
1717001417987187000,9.58418701171875,0.5900021195411682,0.7537091374397278,-0.6047387719154358
1717001417996853200,9.593853271484376,0.5435777306556702,0.22227205336093903,-0.6713211536407471
1717001418006519600,9.60351953125,0.4623350203037262,-0.3097759187221527,-0.5632011890411377
1717001418016185900,9.613185791015624,0.3719296157360077,-0.5687751770019531,-0.23028941452503204
1717001418025852200,9.62285205078125,0.3077906668186188,-0.3916294574737549,0.2620534598827362
1717001418035518500,9.6325185546875,0.2937411665916443,0.09949174523353577,0.7000309824943542
1717001418045184800,9.642184814453126,0.3022930324077606,0.6266529560089111,0.8925241827964783
1717001418054851000,9.65185107421875,0.25831204652786255,1.1221264600753784,0.8864157199859619
1717001418064517000,9.66151708984375,0.15080291032791138,1.6853275299072266,0.8197570443153381
1717001418074183400,9.671183349609375,0.005344913341104984,2.334047317504883,0.7385143637657166
1717001418083849700,9.680849609375,-0.15591876208782196,2.9174065589904785,0.6187883019447327
1717001418093516000,9.69051611328125,-0.31657159328460693,3.3162896633148193,0.38666632771492004
1717001418103182300,9.700182373046875,-0.4918847680091858,3.6027772426605225,-0.012827792204916477
1717001418112848600,9.7098486328125,-0.7117897868156433,3.7696146965026855,-0.5161659121513367
1717001418122515000,9.719514892578125,-0.9542961120605469,3.7311313152313232,-0.9236010313034058
1717001418132181200,9.72918115234375,-1.172979474067688,3.712805986404419,-1.123958945274353
1717001418141847600,9.73884765625,-1.3653963804244995,3.8423056602478027,-1.1496145725250244
1717001418151513900,9.748513916015625,-1.5480396747589111,3.94126296043396,-1.1123528480529785
1717001418161180200,9.75818017578125,-1.7367914915084839,3.852079153060913,-1.1227372884750366
1717001418170846500,9.767846435546875,-1.9347059726715088,3.5734565258026123,-1.188708782196045
1717001418180512800,9.7775126953125,-2.135063886642456,3.1751840114593506,-1.2467392683029175
1717001418190179000,9.787178955078126,-2.302436113357544,2.7811875343322754,-1.2681188583374023
1717001418199845400,9.796845458984375,-2.3971173763275146,2.4720988273620605,-1.2785032987594604
1717001418209511700,9.80651171875,-2.423994541168213,2.2583022117614746,-1.2913310527801514
1717001418219178000,9.816177978515626,-2.407501697540283,2.0994820594787598,-1.2748382091522217
1717001418228844300,9.82584423828125,-2.3384759426116943,1.8417044878005981,-1.2259705066680908
1717001418238510600,9.835510498046874,-2.2053112983703613,1.4617575407028198,-1.199093222618103
1717001418248176600,9.8451767578125,-2.010451078414917,1.0842539072036743,-1.2559019327163696
1717001418257843000,9.854843017578125,-1.8247535228729248,0.8160156011581421,-1.3835690021514893
1717001418267509200,9.86450927734375,-1.6769284009933472,0.6865159869194031,-1.559493064880371
1717001418277175600,9.874175537109375,-1.5779712200164795,0.6547518968582153,-1.712815761566162
1717001418286841900,9.883841796875,-1.5498721599578857,0.6297071576118469,-1.748855710029602
1717001418296508200,9.893508056640625,-1.5810253620147705,0.542356014251709,-1.6712781190872192
1717001418306174500,9.903174560546875,-1.6195087432861328,0.382924884557724,-1.5692665576934814
1717001418315840800,9.9128408203125,-1.6079026460647583,0.14408360421657562,-1.4892456531524658
1717001418325507000,9.922507080078125,-1.5272709131240845,-0.13385190069675446,-1.4324368238449097
1717001418335173400,9.93217333984375,-1.395938754081726,-0.3500918447971344,-1.3768497705459595
1717001418344839700,9.941839599609375,-1.2438377141952515,-0.45088163018226624,-1.3182083368301392
1717001418354506000,9.951506103515625,-1.0911259651184082,-0.41056570410728455,-1.2632321119308472
1717001418364172300,9.96117236328125,-0.9542961120605469,-0.23036576807498932,-1.2082558870315552
1717001418373838600,9.970838623046875,-0.8510629534721375,0.034131091088056564,-1.1459494829177856
1717001418383505000,9.9805048828125,-0.7954758405685425,0.2790808379650116,-1.0842539072036743
1717001418393171200,9.990171142578125,-0.7997517585754395,0.44095537066459656,-1.0347752571105957
1717001418402837500,9.99983740234375,-0.8608365058898926,0.51914381980896,-0.9895725846290588
1717001418412503800,10.00950390625,-0.9567395448684692,0.5118136405944824,-0.9266552925109863
1717001418422170000,10.019170166015625,-1.0294303894042969,0.39330926537513733,-0.8313631415367126
1717001418431836400,10.02883642578125,-1.0001096725463867,0.12331479042768478,-0.7049177289009094
1717001418441502700,10.038502685546876,-0.8247964978218079,-0.322603702545166,-0.5619794726371765
1717001418451168800,10.048168701171875,-0.5322006940841675,-0.9206231832504272,-0.418430358171463
1717001418460835000,10.0578349609375,-0.17424418032169342,-1.5992745161056519,-0.27915719151496887
1717001418470501400,10.06750146484375,0.19539476931095123,-2.2028679847717285,-0.14965757727622986
1717001418480167700,10.077167724609374,0.5331932902336121,-2.601140260696411,-0.029320668429136276
1717001418489834000,10.086833984375,0.8154047131538391,-2.7868378162384033,0.0922379344701767
1717001418499500300,10.096500244140625,1.0377531051635742,-2.7520196437835693,0.21196399629116058
1717001418509166600,10.10616650390625,1.1984059810638428,-2.499128818511963,0.3268032968044281
1717001418518833000,10.1158330078125,1.2912547588348389,-2.0843634605407715,0.4416425824165344
1717001418528499200,10.125499267578125,1.320575475692749,-1.6059937477111816,0.5589252710342407
1717001418538165500,10.13516552734375,1.305915117263794,-1.1380847692489624,0.6603258848190308
1717001418547831800,10.144831787109375,1.286978840827942,-0.6500178575515747,0.7165238261222839
1717001418557498000,10.154498046875,1.2423869371414185,0.03596363216638565,0.6829272508621216
1717001418567164400,10.164164306640625,1.1348778009414673,1.1343433856964111,0.5216635465621948
1717001418576830700,10.173830810546875,0.9387958645820618,2.5869381427764893,0.13866232335567474
1717001418586497000,10.1834970703125,0.5044834613800049,3.9229373931884766,-0.569309651851654
1717001418596163000,10.1931630859375,-0.22311195731163025,4.23874568939209,-1.0549331903457642
1717001418605829400,10.202829345703124,-1.0862390995025635,3.1751840114593506,-0.856407880783081
1717001418615495700,10.21249560546875,-1.890725016593933,1.2449066638946533,-0.2724378705024719
1717001418625162000,10.222161865234375,-2.4050583839416504,-0.6115344762802124,0.2498365342617035
1717001418634828300,10.231828369140626,-2.44109845161438,-1.4911545515060425,0.41171106696128845
1717001418644494600,10.24149462890625,-2.0849742889404297,-1.339664340019226,0.22540263831615448
1717001418654161000,10.251160888671874,-1.5816363096237183,-0.6805602312088013,-0.051922015845775604
1717001418663827200,10.2608271484375,-1.1320526599884033,0.03718532621860504,-0.2583884000778198
1717001418673493500,10.270493408203125,-0.7850914597511292,0.489212304353714,-0.3658975064754486
1717001418683159800,10.280159912109376,-0.5303681492805481,0.5167004466056824,-0.2602209448814392
1717001418692826000,10.289826171875,-0.3067980408668518,-0.0031305921729654074,0.15210096538066864
1717001418702492400,10.299492431640624,0.023059483617544174,-1.307289481163025,0.8148702383041382
1717001418712158700,10.30915869140625,0.4739411175251007,-2.710481882095337,1.4270155429840088
1717001418721825000,10.318824951171875,0.8813762664794922,-3.4147889614105225,1.7758092880249023
1717001418731491300,10.3284912109375,1.1507599353790283,-3.1203606128692627,1.8509435653686523
1717001418741157400,10.338157470703125,1.2057361602783203,-2.0788660049438477,1.6860147714614868
1717001418750823700,10.34782373046875,0.9937721490859985,-0.5944307446479797,1.2816338539123535
1717001418760490000,10.357489990234376,0.5777851343154907,1.666391372680664,0.5607577562332153
1717001418770156300,10.36715625,0.22960221767425537,3.8642961978912354,-0.21990501880645752
1717001418779822600,10.376822509765624,0.20944425463676453,4.798281669616699,-0.652384877204895
1717001418789489000,10.386489013671875,0.5276956558227539,5.047507286071777,-0.8301414251327515
1717001418799155200,10.3961552734375,1.049970030784607,5.219155311584473,-0.8845068216323853
1717001418808821500,10.405821533203126,1.2936981916427612,3.534362316131592,-0.14049486815929413
1717001418818487800,10.41548779296875,1.2576581239700317,0.8154047131538391,0.6224533319473267
1717001418828154000,10.425154052734374,1.1232717037200928,-1.1936719417572021,0.660936713218689
1717001418837820400,10.4348203125,0.8777111768722534,-2.893125295639038,0.4874561131000519
1717001418847486700,10.44448681640625,0.6657471656799316,-4.280359268188477,0.3304683566093445
1717001418857153000,10.454153076171876,0.6126034259796143,-5.189376354217529,0.24372805655002594
1717001418866819300,10.4638193359375,0.6694122552871704,-5.474642276763916,0.2339545041322708
1717001418876485600,10.473485595703124,0.6846834421157837,-4.3347249031066895,0.21440738439559937
1717001418886152000,10.48315185546875,0.6516976952552795,-1.593776822090149,0.1453816443681717
1717001418895818200,10.492818359375,0.7005654573440552,0.37925979495048523,0.1850867122411728
1717001418905484300,10.502484375,0.8422819972038269,0.9284114837646484,0.3946073353290558
1717001418915150600,10.512150634765625,0.9968263506889343,0.8880955576896667,0.6817055344581604
1717001418924817000,10.52181689453125,1.115330696105957,1.0017894506454468,0.9627716541290283
1717001418934483200,10.531483154296875,1.1415971517562866,1.2797249555587769,1.2089431285858154
1717001418944149500,10.5411494140625,1.0634087324142456,1.3145432472229004,1.359822392463684
1717001418953815800,10.55081591796875,0.9516236782073975,0.998735249042511,1.3659307956695557
1717001418963482000,10.560482177734375,0.8538880944252014,0.5283065438270569,1.2358204126358032
1717001418973148400,10.5701484375,0.7653152346611023,0.10987614840269089,1.015304446220398
1717001418982814700,10.579814697265626,0.6810183525085449,-0.18516308069229126,0.7837170362472534
1717001418992481000,10.58948095703125,0.5961105823516846,-0.39895960688591003,0.6151232123374939
1717001419002147300,10.599147216796876,0.5173112750053406,-0.5553365349769592,0.5363239049911499
1717001419011813600,10.608813720703125,0.4763845205307007,-0.6304707527160645,0.5369347333908081
1717001419021479700,10.618479736328124,0.4751628041267395,-0.6078693866729736,0.5974085927009583
1717001419031146000,10.62814599609375,0.5276956558227539,-0.48753246665000916,0.6878139972686768
1717001419040812300,10.637812255859375,0.6181010603904724,-0.2749576270580292,0.7733326554298401
1717001419050478600,10.647478515625,0.704230546951294,-0.0031305921729654074,0.8234221339225769
1717001419060145000,10.657144775390625,0.7805864214897156,0.23693238198757172,0.81425940990448
1717001419069811200,10.666811279296875,0.8453362584114075,0.37864893674850464,0.7446228265762329
1717001419079477500,10.6764775390625,0.8923714756965637,0.4220190942287445,0.6468872427940369
1717001419089143800,10.686143798828125,0.9229138493537903,0.40430453419685364,0.5650337338447571
1717001419098810000,10.69581005859375,0.9436826705932617,0.3468848764896393,0.5351021885871887
1717001419108476400,10.705476318359375,0.9791117906570435,0.29862794280052185,0.5815265774726868
1717001419118142700,10.715142822265625,1.0408073663711548,0.30962321162223816,0.7024743556976318
1717001419127809000,10.72480908203125,1.1238826513290405,0.4085804522037506,0.8913025259971619
1717001419137475000,10.73447509765625,1.2087904214859009,0.5875586867332458,1.1319763660430908
1717001419147141400,10.744141357421874,1.268653392791748,0.8239566087722778,1.38731050491333
1717001419156807700,10.7538076171875,1.2796486616134644,1.0750911235809326,1.6011070013046265
1717001419166474000,10.763473876953125,1.2203965187072754,1.3108782768249512,1.7422127723693848
1717001419176140300,10.773140380859376,1.0811232328414917,1.757407546043396,1.6420338153839111
1717001419185806600,10.782806640625,0.8514447212219238,2.28579044342041,0.9481112957000732
1717001419195473000,10.792472900390624,0.5588488578796387,2.123305082321167,0.014660334214568138
1717001419205139200,10.80213916015625,0.30656898021698,1.3524158000946045,-0.5534276366233826
1717001419214805500,10.811805419921875,0.1330883502960205,0.5154787302017212,-0.7055285573005676
1717001419224471800,10.821471923828126,0.02489202655851841,-0.07887565344572067,-0.5711421966552734
1717001419234138000,10.83113818359375,-0.025197450071573257,-0.4166741967201233,-0.2919849753379822
1717001419243804400,10.840804443359374,-0.022754060104489326,-0.6133670210838318,-0.034818295389413834
1717001419253470700,10.850470703125,0.011453386396169662,-0.687890350818634,0.10140064358711243
1717001419263137000,10.860136962890625,0.021837789565324783,-0.5785487294197083,0.11606097966432571
1717001419272803000,10.869802978515626,-0.055739812552928925,-0.375747412443161,-0.0036650835536420345
1717001419282469400,10.879469482421875,-0.2304421216249466,-0.2596864402294159,-0.2510582208633423
1717001419292135700,10.8891357421875,-0.4234698712825775,-0.30183491110801697,-0.5393781065940857
1717001419301802000,10.898802001953126,-0.5829010009765625,-0.42461520433425903,-0.7611156702041626
1717001419311468300,10.90846826171875,-0.7038487792015076,-0.5254049897193909,-0.8979454636573792
1717001419321134600,10.918134521484374,-0.8089144825935364,-0.5137988924980164,-0.971247136592865
1717001419330801000,10.92780078125,-0.940857470035553,-0.3885752260684967,-1.0060654878616333
1717001419340467200,10.93746728515625,-1.1296093463897705,-0.2193705290555954,-1.0750911235809326
1717001419350133500,10.947133544921876,-1.3934953212738037,-0.025731941685080528,-1.2607887983322144
1717001419359799800,10.9567998046875,-1.72823965549469,0.22960221767425537,-1.5814836025238037
1717001419369466000,10.966466064453124,-2.0776443481445312,0.4721085727214813,-1.8625496625900269
1717001419379132200,10.976132080078125,-2.3244266510009766,0.6614712476730347,-1.9108065366744995
1717001419388798500,10.985798583984375,-2.4172754287719727,0.8642725348472595,-1.715259075164795
1717001419398464800,10.99546484375,-2.3916196823120117,1.0983033180236816,-1.3878449201583862
1717001419408131000,11.005131103515625,-2.2834997177124023,1.2442958354949951,-1.0952491760253906
1717001419417797400,11.01479736328125,-2.111851692199707,1.1221264600753784,-0.9223793745040894
1717001419427463700,11.024463623046875,-1.8943901062011719,0.6144359707832336,-0.8344173431396484
1717001419437130000,11.0341298828125,-1.6830369234085083,-0.14423631131649017,-0.7653915882110596
1717001419446796300,11.04379638671875,-1.5278817415237427,-0.8833615183830261,-0.6792621612548828
1717001419456462600,11.053462646484375,-1.4228159189224243,-1.4447301626205444,-0.6065713167190552
1717001419466129000,11.06312890625,-1.3562335968017578,-1.7128920555114746,-0.6187883019447327
1717001419475795200,11.072795166015625,-1.3458492755889893,-1.6078263521194458,-0.7391251921653748
1717001419485461500,11.08246142578125,-1.3886085748672485,-1.2101647853851318,-0.8887827396392822
1717001419495127800,11.0921279296875,-1.427702784538269,-0.7288171648979187,-0.9541434049606323
1717001419504794000,11.101794189453125,-1.4099881649017334,-0.4001813232898712,-0.9144383668899536
1717001419514460200,11.111460205078124,-1.3324105739593506,-0.352535218000412,-0.8215895891189575
1717001419524126500,11.12112646484375,-1.2316207885742188,-0.516242265701294,-0.7146912813186646
1717001419533792800,11.130792724609375,-1.1338852643966675,-0.7361472845077515,-0.6145123243331909
1717001419543459000,11.140458984375,-1.0477557182312012,-0.9438353776931763,-0.5204418897628784
1717001419553125400,11.15012548828125,-0.9652913808822632,-1.1118183135986328,-0.4349232614040375
1717001419562791700,11.159791748046874,-0.885881245136261,-1.216273307800293,-0.363454133272171
1717001419572458000,11.1694580078125,-0.8138012886047363,-1.2608650922775269,-0.3035911023616791
1717001419582124300,11.179124267578125,-0.7459971904754639,-1.2547565698623657,-0.2492256760597229
1717001419591790600,11.18879052734375,-0.6751389503479004,-1.1924501657485962,-0.20524467527866364
1717001419601457000,11.198456787109375,-0.6073349118232727,-1.0910495519638062,-0.1716480851173401
1717001419611123000,11.208123046875,-0.5499152541160583,-0.9529981017112732,-0.14171656966209412
1717001419620789200,11.217789306640626,-0.5077667832374573,-0.8051730394363403,-0.10811996459960938
1717001419630455600,11.22745556640625,-0.47111594676971436,-0.7141568064689636,-0.06047387793660164
1717001419640121900,11.237121826171874,-0.41980478167533875,-0.7275954484939575,-0.0030542362947016954
1717001419649788200,11.2467880859375,-0.33856210112571716,-0.8375479578971863,0.054365407675504684
1717001419659454500,11.256454345703125,-0.20722992718219757,-1.0128611326217651,0.09468132257461548
1717001419669120800,11.266120849609376,-0.02214321307837963,-1.1967260837554932,0.12155860662460327
1717001419678787000,11.275787109375,0.1990598440170288,-1.3592115640640259,0.15454435348510742
1717001419688453400,11.285453369140624,0.4250733256340027,-1.482602596282959,0.20646637678146362
1717001419698119700,11.29511962890625,0.6358156204223633,-1.5522392988204956,0.2767138183116913
1717001419707786000,11.304785888671875,0.8135721683502197,-1.568121314048767,0.3567348122596741
1717001419717452300,11.314452392578126,0.9430717825889587,-1.5497958660125732,0.4330907166004181
1717001419727118300,11.324118408203125,1.0279796123504639,-1.5045931339263916,0.4813476502895355
1717001419736784600,11.33378466796875,1.0768473148345947,-1.4728291034698486,0.5204418897628784
1717001419746451000,11.343450927734375,1.1104439496994019,-1.4630554914474487,0.5839699506759644
1717001419756117200,11.3531171875,1.0750148296356201,-1.3286691904067993,0.6896465420722961
1717001419765783600,11.362783447265626,0.9106969237327576,-0.905351996421814,0.786771297454834
1717001419775449900,11.372449951171875,0.5814502239227295,-0.10269869863986969,0.3524588644504547
1717001419785116200,11.3821162109375,-0.10766182839870453,0.5625139474868774,-0.9859074950218201
1717001419794782500,11.391782470703125,-0.9591829180717468,0.49287739396095276,-1.5411676168441772
1717001419804448800,11.40144873046875,-1.6451643705368042,-0.09475768357515335,-0.8203678727149963
1717001419814114800,11.41111474609375,-2.083141803741455,-0.5699968338012695,0.20035789906978607
1717001419823781000,11.420781005859375,-2.1485025882720947,-0.47409382462501526,0.8319739699363708
1717001419833447400,11.430447509765624,-1.861404299736023,0.020692450925707817,0.9823187589645386
1717001419843113700,11.44011376953125,-1.3635637760162354,0.5118136405944824,0.7195780873298645
1717001419852780000,11.449780029296875,-0.8266290426254272,0.8496121764183044,0.2651077210903168
1717001419862446300,11.4594462890625,-0.44546034932136536,1.0934165716171265,-0.09590301662683487
1717001419872112600,11.469112548828125,-0.305576354265213,1.349361538887024,-0.24067382514476776
1717001419881779000,11.478779052734374,-0.3086305856704712,1.3560808897018433,-0.06169557198882103
1717001419891445200,11.4884453125,-0.24510246515274048,0.6626929044723511,0.4569137394428253
1717001419901111600,11.498111572265625,-0.06368082761764526,-0.37208232283592224,1.0666157007217407
1717001419910777900,11.50777783203125,0.20944425463676453,-0.9316184520721436,1.4679423570632935
1717001419920444000,11.51744384765625,0.4605024755001068,-0.9181798100471497,1.5473524332046509
1717001419930110200,11.527110107421874,0.542356014251709,-0.516242265701294,1.28590989112854
1717001419939776500,11.536776611328126,0.41774317622184753,0.2931303381919861,0.707361102104187
1717001419949442800,11.54644287109375,0.28702184557914734,1.3401988744735718,-0.02626643143594265
1717001419959109000,11.556109130859374,0.4330143630504608,1.8795770406723022,-0.5436540842056274
1717001419968775400,11.565775390625,0.8276216983795166,1.8007776737213135,-0.712247908115387
1717001419978441700,11.575441650390625,1.2509387731552124,1.532004952430725,-0.5833591222763062
1717001419988108000,11.58510791015625,1.5007753372192383,0.8691592812538147,-0.14904673397541046
1717001419997774300,11.5947744140625,1.5771312713623047,-0.20287764072418213,0.24067382514476776
1717001420007440400,11.6044404296875,1.5655251741409302,-1.3213390111923218,0.3139754831790924
1717001420017106700,11.614106689453125,1.4329713582992554,-2.49363112449646,0.2754921019077301
1717001420026773000,11.62377294921875,1.1837456226348877,-3.610260009765625,0.24556060135364532
1717001420036439300,11.633439208984376,0.9442934989929199,-4.461857318878174,0.2620534598827362
1717001420046105600,11.643105712890625,0.7897491455078125,-4.839972019195557,0.3512371778488159
1717001420055772000,11.65277197265625,0.6962895393371582,-4.529050827026367,0.5033381581306458
1717001420065438200,11.662438232421875,0.6052733063697815,-3.4208972454071045,0.6328377723693848
1717001420075104500,11.6721044921875,0.5356366634368896,-1.9316517114639282,0.6603258848190308
1717001420084770800,11.681770751953126,0.5515187382698059,-0.711713433265686,0.6444438695907593
1717001420094437000,11.69143701171875,0.6584169864654541,0.03290939703583717,0.684759795665741
1717001420104103200,11.701103271484374,0.7921925187110901,0.5038726329803467,0.8148702383041382
1717001420113769500,11.71076953125,0.8740460872650146,0.9326874017715454,1.0275214910507202
1717001420123435800,11.720435791015625,0.875267744064331,1.296217918395996,1.275525450706482
1717001420133102000,11.73010205078125,0.824567437171936,1.4086138010025024,1.4545036554336548
1717001420142768400,11.739768310546875,0.7763105034828186,1.2345223426818848,1.4801592826843262
1717001420152434700,11.7494345703125,0.7476006746292114,0.8966473937034607,1.3586006164550781
1717001420162101000,11.75910107421875,0.7237776517868042,0.5203655362129211,1.1564102172851562
1717001420171767300,11.768767333984375,0.6987329125404358,0.19111883640289307,0.9810970425605774
1717001420181433600,11.77843359375,0.676742434501648,-0.056274302303791046,0.9151255488395691
1717001420191100000,11.788099853515625,0.6651363372802734,-0.24746949970722198,0.956052303314209
1717001420200766200,11.79776611328125,0.6700230836868286,-0.4154524803161621,1.039738416671753
1717001420210432300,11.807432373046876,0.6840725541114807,-0.5437304377555847,1.1112074851989746
1717001420220098600,11.8170986328125,0.7140040993690491,-0.6078693866729736,1.1441932916641235
1717001420229764900,11.826764892578124,0.7567633986473083,-0.60909104347229,1.1466366052627563
1717001420239431200,11.83643115234375,0.7976901531219482,-0.5693860054016113,1.126478672027588
1717001420249097500,11.846097412109375,0.8215132355690002,-0.5223507881164551,1.077610969543457
1717001420258763800,11.855763671875,0.8410603404045105,-0.5003602504730225,0.9933140277862549
1717001420268430000,11.86543017578125,0.8661050796508789,-0.4960843324661255,0.8949676156044006
1717001420278096400,11.875096435546874,0.8954257369041443,-0.4667636752128601,0.8050966858863831
1717001420287762400,11.884762451171875,0.9302440285682678,-0.37269318103790283,0.7415685653686523
1717001420297428700,11.8944287109375,0.9760575890541077,-0.18699561059474945,0.7177455425262451
1717001420307095000,11.904094970703126,1.0175951719284058,0.07689040154218674,0.7507312893867493
1717001420316761300,11.91376123046875,1.0438616275787354,0.39208757877349854,0.8552625179290771
1717001420326427600,11.923427734375,1.056078553199768,0.7353837490081787,1.0317974090576172
1717001420336094000,11.933093994140625,1.0609652996063232,1.0323318243026733,1.2291010618209839
1717001420345760300,11.94276025390625,1.032866358757019,1.1752700805664062,1.3634874820709229
1717001420355426600,11.952426513671876,0.9436826705932617,1.1245697736740112,1.391586422920227
1717001420365092900,11.9620927734375,0.7921925187110901,0.9645278453826904,1.3256149291992188
1717001420374759200,11.97175927734375,0.6077166795730591,0.926578938961029,1.1130400896072388
1717001420384425200,11.98142529296875,0.4073587656021118,0.9535325765609741,0.624896764755249
1717001420394091500,11.991091552734375,0.23571068048477173,0.5735092163085938,0.037261683493852615
1717001420403757800,12.0007578125,0.1605764776468277,-0.16378341615200043,-0.3958290219306946
1717001420413424000,12.010424072265625,0.15263545513153076,-0.7923452258110046,-0.5931326746940613
1717001420423090400,12.02009033203125,0.1349208950996399,-0.9132930040359497,-0.5100574493408203
1717001420432756700,12.0297568359375,0.07986827939748764,-0.5290700793266296,-0.2107423096895218
1717001420442423000,12.039423095703125,-0.011147962883114815,-0.018401773646473885,0.09956810623407364
1717001420452089000,12.049089111328126,-0.1375933438539505,0.2821350693702698,0.24006296694278717
1717001420461755400,12.05875537109375,-0.2939702570438385,0.41896486282348633,0.23151111602783203
1717001420471421700,12.068421630859374,-0.4521796703338623,0.5344150066375732,0.1459924876689911
1717001420481088000,12.078087890625,-0.6134433746337891,0.6034407615661621,-0.004275931045413017
1717001420490754300,12.08775439453125,-0.8021951913833618,0.5777851343154907,-0.21990501880645752
1717001420500420600,12.097420654296876,-1.0233218669891357,0.5020400881767273,-0.4837910234928131
1717001420510087000,12.1070869140625,-1.289040446281433,0.616268515586853,-0.8069292306900024
1717001420519753200,12.116753173828124,-1.6243956089019775,1.1355650424957275,-1.245517611503601
1717001420529419500,12.12641943359375,-1.9823520183563232,1.8441479206085205,-1.7268651723861694
1717001420539085800,12.1360859375,-2.270672082901001,2.510582208633423,-2.112997055053711
1717001420548752000,12.145751953125,-2.4832468032836914,3.0701184272766113,-2.3170199394226074
1717001420558418200,12.155418212890625,-2.628093957901001,3.4060842990875244,-2.233944892883301
1717001420568084500,12.16508447265625,-2.692232847213745,3.407916784286499,-1.926688551902771
1717001420577750800,12.174750732421876,-2.6549713611602783,3.0682857036590576,-1.6205778121948242
1717001420587417000,12.1844169921875,-2.5235626697540283,2.467823028564453,-1.4446537494659424
