time,seconds_elapsed,z,y,x
1717002214786155800,0.04815576171875,-0.19821994006633759,0.1301104724407196,0.19440214335918427
1717002214795821300,0.0578212890625,-0.19150061905384064,0.17348061501979828,0.2579302489757538
1717002214805486600,0.067486572265625,-0.17745113372802734,0.1954711228609085,0.3092414140701294
1717002214815152000,0.077152099609375,-0.16645587980747223,0.20341213047504425,0.3434488773345947
1717002214824817700,0.086817626953125,-0.17500774562358856,0.19424942135810852,0.35505497455596924
1717002214834483000,0.09648291015625,-0.2086043357849121,0.17225892841815948,0.35138988494873047
1717002214844148500,0.1061484375,-0.25747212767601013,0.1325538605451584,0.34283801913261414
1717002214853814000,0.11581396484375,-0.30878329277038574,0.0794101431965828,0.3367295563220978
1717002214863479300,0.125479248046875,-0.3503209054470062,0.007941014133393764,0.3367295563220978
1717002214873144800,0.135144775390625,-0.37292224168777466,-0.07452336698770523,0.34283801913261414
1717002214882810400,0.144810302734375,-0.37536564469337463,-0.15393351018428802,0.3452814221382141
1717002214892475600,0.1544755859375,-0.36192700266838074,-0.25777754187583923,0.33917292952537537
1717002214902141200,0.16414111328125,-0.33443886041641235,-0.3176405727863312,0.3568875193595886
1717002214911806700,0.173806640625,-0.3020639717578888,-0.2608317732810974,0.4112529158592224
1717002214921472300,0.18347216796875,-0.27091076970100403,-0.1582094430923462,0.4668400287628174
1717002214931137500,0.193137451171875,-0.24464432895183563,-0.08185353130102158,0.5022691488265991
1717002214940803000,0.202802978515625,-0.21959958970546722,-0.043981000781059265,0.5328115224838257
1717002214950468600,0.212468505859375,-0.20555010437965393,-0.0390942245721817,0.5780141949653625
1717002214960134000,0.2221337890625,-0.21288026869297028,-0.05986303091049194,0.6305471062660217
1717002214969799400,0.23179931640625,-0.24403348565101624,-0.10384403169155121,0.6830799579620361
1717002214979465000,0.24146484375,-0.29534465074539185,-0.16065283119678497,0.7178982496261597
1717002214989130200,0.251130126953125,-0.34665581583976746,-0.21746163070201874,0.7203416228294373
1717002214998795800,0.260795654296875,-0.3826957941055298,-0.25350162386894226,0.6885775923728943
1717002215008461300,0.27046142578125,-0.3936910629272461,-0.25533416867256165,0.6250494718551636
1717002215018126600,0.280126708984375,-0.377198189496994,-0.2235700935125351,0.5334223508834839
1717002215027792100,0.289792236328125,-0.3399364948272705,-0.1569877415895462,0.4240806996822357
1717002215037457700,0.299457763671875,-0.2892361879348755,-0.07146912813186646,0.31290650367736816
1717002215047123000,0.309123046875,-0.23425991833209991,0.009773556143045425,0.20845162868499756
1717002215056788500,0.31878857421875,-0.17867282032966614,0.0787992998957634,0.11926792562007904
1717002215066454000,0.3284541015625,-0.12613995373249054,0.13744063675403595,0.05329642444849014
1717002215076119300,0.338119384765625,-0.07605048269033432,0.17958909273147583,0.01175880990922451
1717002215085784800,0.347784912109375,-0.032069481909275055,0.20768806338310242,0.001374406274408102
1717002215095450400,0.357450439453125,0.0009162708884105086,0.21685077250003815,0.014202198944985867
1717002215105115600,0.36711572265625,0.018630841746926308,0.20157960057258606,0.04413371533155441
1717002215114781200,0.37678125,0.02107422985136509,0.16370706260204315,0.08078455179929733
1717002215124446700,0.38644677734375,0.011300674639642239,0.1178935244679451,0.11560284346342087
1717002215134112300,0.3961123046875,-0.005803049076348543,0.07635590434074402,0.14614520967006683
1717002215143777500,0.405777587890625,-0.02351761981844902,0.043981000781059265,0.1656923145055771
1717002215153443000,0.415443115234375,-0.037567105144262314,0.02504473738372326,0.17302247881889343
1717002215163108600,0.425108642578125,-0.05405998229980469,0.011606098152697086,0.1772984117269516
1717002215172774000,0.43477392578125,-0.08093725889921188,0.006719320081174374,0.19501298666000366
1717002215182439400,0.444439453125,-0.12369657307863235,0.01038440316915512,0.2304421216249466
1717002215192105000,0.45410498046875,-0.17928366363048553,0,0.2695363461971283
1717002215201770200,0.463770263671875,-0.2354816198348999,-0.034818295389413834,0.2964136302471161
1717002215211435800,0.473435791015625,-0.27885177731513977,-0.08490777015686035,0.2958027720451355
1717002215221101300,0.483101318359375,-0.3026748299598694,-0.12033691257238388,0.26464956998825073
1717002215230766600,0.4927666015625,-0.30633988976478577,-0.11117420345544815,0.2176143378019333
1717002215240432000,0.50243212890625,-0.3014531135559082,-0.07269082218408585,0.17241163551807404
1717002215250097700,0.51209765625,-0.3148917555809021,-0.06902574002742767,0.14370182156562805
1717002215259763000,0.521762939453125,-0.37353309988975525,-0.1966928243637085,0.13270656764507294
1717002215269428500,0.531428466796875,-0.4840964674949646,-0.4618005156517029,0.14125843346118927
1717002215279094000,0.541093994140625,-0.6074876189231873,-0.7922688722610474,0.18462859094142914
1717002215288759300,0.55075927734375,-0.6673506498336792,-1.178935170173645,0.2548760175704956
1717002215298424800,0.5604248046875,-0.7003363966941833,-1.5399459600448608,0.3220692276954651
1717002215308090400,0.57009033203125,-0.7620319724082947,-1.753208041191101,0.42957833409309387
1717002215317755600,0.579755615234375,-0.8060129284858704,-1.7868045568466187,0.5725166201591492
1717002215327421200,0.589421142578125,-0.8402203917503357,-1.7262543439865112,0.6873558759689331
1717002215337086700,0.599086669921875,-0.8683193922042847,-1.6541743278503418,0.728893518447876
1717002215346752000,0.608751953125,-0.8725953102111816,-1.61874520778656,0.6946860551834106
1717002215356417500,0.61841748046875,-0.8353336453437805,-1.5918679237365723,0.6061131954193115
1717002215366083000,0.6280830078125,-0.749204158782959,-1.557660460472107,0.5016583204269409
1717002215375748400,0.637748291015625,-0.6264238357543945,-1.4690876007080078,0.41797223687171936
1717002215385414000,0.647413818359375,-0.4950917065143585,-1.281557559967041,0.36605021357536316
1717002215395079400,0.657079345703125,-0.38819342851638794,-1.0579874515533447,0.33001023530960083
1717002215404744700,0.66674462890625,-0.3155026137828827,-0.5888567566871643,0.2976353168487549
1717002215414410200,0.67641015625,-0.27091076970100403,0.1185043677687645,0.2848075330257416
1717002215424075800,0.68607568359375,-0.2476985603570938,-0.012827792204916477,0.24021568894386292
1717002215433741300,0.6957412109375,-0.24159009754657745,-0.8240329623222351,0.16752485930919647
1717002215443406600,0.705406494140625,-0.2599155008792877,-1.5985872745513916,0.1388150453567505
1717002215453072100,0.715072021484375,-0.23425991833209991,-2.549752712249756,0.24510246515274048
1717002215462737700,0.724737548828125,-0.21165858209133148,-3.44097900390625,0.45523393154144287
1717002215472403000,0.73440283203125,-0.25625041127204895,-4.134901523590088,0.6348230242729187
1717002215482068500,0.744068359375,-0.3509317636489868,-4.4880475997924805,0.7178982496261597
1717002215491734000,0.753734130859375,-0.40041038393974304,-4.444677352905273,0.7490514516830444
1717002215501399300,0.7633994140625,-0.3436015844345093,-4.078092575073242,0.8125795722007751
1717002215511064800,0.77306494140625,-0.19455485045909882,-3.629730701446533,0.8907679915428162
1717002215520730400,0.78273046875,0.0198525357991457,-3.221073865890503,0.959793746471405
1717002215530395600,0.792395751953125,0.2745758295059204,-2.9455819129943848,1.0141592025756836
1717002215540061200,0.802061279296875,0.5787777900695801,-2.711627244949341,1.0856282711029053
1717002215549726700,0.811726806640625,0.9758284687995911,-2.3225176334381104,1.0996778011322021
1717002215559392000,0.82139208984375,1.355164647102356,-2.2137868404388428,0.968956470489502
1717002215569057500,0.8310576171875,1.5336084365844727,-2.552807092666626,0.7637118101119995
1717002215578723000,0.84072314453125,1.5238348245620728,-2.9877302646636963,0.6018372774124146
1717002215588388400,0.850388427734375,1.469469428062439,-3.3841700553894043,0.6042806506156921
1717002215598054000,0.860053955078125,1.501233458518982,-3.8526899814605713,0.7484406232833862
1717002215607719400,0.869719482421875,1.6435608863830566,-4.356028079986572,0.9933903813362122
1717002215617384700,0.879384765625,1.8518598079681396,-4.705509185791016,1.2842299938201904
1717002215627050200,0.88905029296875,2.08398175239563,-4.847225666046143,1.505967617034912
1717002215636715800,0.8987158203125,2.2996108531951904,-4.816072463989258,1.5811017751693726
1717002215646381000,0.908381103515625,2.4737024307250977,-4.68412971496582,1.5139086246490479
1717002215656046600,0.918046630859375,2.6239707469940186,-4.477663040161133,1.3734136819839478
1717002215665712000,0.927712158203125,2.830437183380127,-4.117187023162842,1.119301199913025
1717002215675377400,0.93737744140625,3.096766471862793,-4.226528644561768,0.830294132232666
1717002215685043000,0.94704296875,3.2775774002075195,-4.273563861846924,0.7392778992652893
1717002215694708500,0.95670849609375,3.469383478164673,-4.166665554046631,0.7637118101119995
1717002215704373800,0.966373779296875,3.6709630489349365,-3.9406521320343018,0.7728744745254517
1717002215714039300,0.976039306640625,3.8829269409179688,-3.3927221298217773,0.8125795722007751
1717002215723704800,0.985704833984375,4.085728168487549,-2.657261848449707,0.8913788795471191
1717002215733370000,0.9953701171875,4.194535255432129,-2.0079312324523926,0.8498412370681763
1717002215743035600,1.00503564453125,4.156052112579346,-1.5332266092300415,0.755770742893219
1717002215752701200,1.014701171875,3.9537851810455322,-1.273005723953247,0.7014053463935852
1717002215762366500,1.024366455078125,3.646528959274292,-1.1392301321029663,0.7380561828613281
1717002215772032000,1.034031982421875,3.293459415435791,-1.0622633695602417,0.8645015954971313
1717002215781697500,1.043697509765625,2.917177438735962,-1.0060654878616333,1.0404255390167236
1717002215791362800,1.05336279296875,2.5170724391937256,-0.9730796813964844,1.250022530555725
1717002215801028400,1.0630283203125,2.125519275665283,-0.990183413028717,1.4485479593276978
1717002215810694000,1.07269384765625,1.807878851890564,-0.9058864712715149,1.6275261640548706
1717002215820359200,1.082359130859375,1.5494904518127441,-0.6902574300765991,1.7466413974761963
1717002215830024700,1.092024658203125,1.2849172353744507,-0.4092676639556885,1.7613017559051514
1717002215839690200,1.101690185546875,0.9385668039321899,-0.04825693368911743,1.629969596862793
1717002215849355500,1.11135546875,0.4596625566482544,0.35795649886131287,1.327600121498108
1717002215859021000,1.12102099609375,-0.10170606523752213,0.6591041684150696,0.9909469485282898
1717002215868686600,1.1306865234375,-0.6423059105873108,0.7983773946762085,0.7502731680870056
1717002215878352000,1.140351806640625,-1.0851701498031616,0.8771766424179077,0.5835118293762207
1717002215888017400,1.150017333984375,-1.418769121170044,0.892447829246521,0.4369085133075714
1717002215897683000,1.159682861328125,-1.6429500579833984,0.8008207678794861,0.3067980408668518
1717002215907348200,1.16934814453125,-1.7718387842178345,0.6749862432479858,0.1754658818244934
1717002215917013800,1.179013671875,-1.7864991426467896,0.7427902817726135,-0.15805672109127045
1717002215926679300,1.18867919921875,-1.566594123840332,1.136863112449646,-1.0016367435455322
1717002215936344600,1.198344482421875,-1.1126582622528076,1.5516283512115479,-2.093297243118286
1717002215946010000,1.208010009765625,-0.8414421081542969,1.3750935792922974,-2.6375620365142822
1717002215955675600,1.217675537109375,-0.9031376838684082,0.6872031688690186,-2.5080626010894775
1717002215965341200,1.227341064453125,-1.1260969638824463,0.031153209507465363,-2.1317806243896484
1717002215975006500,1.23700634765625,-1.354019284248352,-0.30847787857055664,-1.8349088430404663
1717002215984672000,1.246672119140625,-1.4963467121124268,-0.36039987206459045,-1.7060199975967407
1717002215994337500,1.256337646484375,-1.6136293411254883,-0.3164188861846924,-1.741449236869812
1717002216004002800,1.2660029296875,-1.6478368043899536,-0.5332696437835693,-1.7365623712539673
1717002216013668400,1.27566845703125,-1.5311650037765503,-0.9571976661682129,-1.5410149097442627
1717002216023334000,1.285333984375,-1.292934536933899,-1.4196090698242188,-1.1146435737609863
1717002216032999200,1.294999267578125,-1.0772291421890259,-1.5704883337020874,-0.7029324769973755
1717002216042664700,1.304664794921875,-0.9483403563499451,-1.3230952024459839,-0.6076403260231018
1717002216052330200,1.314330322265625,-1.0393565893173218,-0.4819584786891937,-1.21482253074646
1717002216061995500,1.32399560546875,-1.3778423070907593,0.18753011524677277,-2.104292392730713
1717002216071661000,1.3336611328125,-1.654556155204773,0.5027272701263428,-2.6638286113739014
1717002216081326600,1.34332666015625,-1.8072680234909058,0.6774296164512634,-2.7224698066711426
1717002216090991900,1.352991943359375,-1.9043927192687988,0.5882459282875061,-2.344966173171997
1717002216100657400,1.362657470703125,-1.8659093379974365,0.2724378705024719,-1.9027128219604492
1717002216110323000,1.372322998046875,-1.5568206310272217,-0.17958909273147583,-1.7194586992263794
1717002216119988200,1.38198828125,-1.203063726425171,-0.6303943991661072,-1.78787362575531
1717002216129653800,1.39165380859375,-1.1517524719238281,-1.0433270931243896,-1.68341863155365
1717002216139319300,1.4013193359375,-1.405941367149353,-1.1618314981460571,-1.2520841360092163
1717002216148984600,1.410984619140625,-1.7376314401626587,-0.92054682970047,-0.6540647149085999
1717002216158650000,1.420650146484375,-2.01190185546875,-0.47768256068229675,-0.21364383399486542
1717002216168315400,1.4303154296875,-2.0937552452087402,-0.034818295389413834,-0.2539597451686859
1717002216177981000,1.43998095703125,-1.6686056852340698,-0.11972606182098389,-0.640626072883606
1717002216187646500,1.449646484375,-1.1822948455810547,-0.17470231652259827,-0.7298097610473633
1717002216197312000,1.45931201171875,-0.8652651309967041,-0.2113531529903412,-0.35597124695777893
1717002216206977300,1.468977294921875,-0.8341119289398193,-0.38727715611457825,0.2573194205760956
1717002216216642800,1.478642822265625,-0.8041804432868958,-0.6810947060585022,0.7783721089363098
1717002216226308400,1.488308349609375,-0.717440128326416,-0.9620844125747681,1.0917367935180664
1717002216235973600,1.4979736328125,-0.6832326650619507,-1.1123528480529785,1.3159940242767334
1717002216245639200,1.50763916015625,-0.6716265678405762,-1.1795459985733032,1.472370982170105
1717002216255304700,1.5173046875,-0.6264238357543945,-1.1587772369384766,1.6226394176483154
1717002216264970000,1.526969970703125,-0.5183038711547852,-1.0567657947540283,1.864534854888916
1717002216274635500,1.536635498046875,-0.29351210594177246,-0.9498674869537354,2.1357510089874268
1717002216284301000,1.546301025390625,0.046729814261198044,-0.8667922616004944,2.2884628772735596
1717002216293966300,1.55596630859375,0.4034646153450012,-0.7220214605331421,2.260363817214966
1717002216303632000,1.5656318359375,0.693617045879364,-0.4282039403915405,2.0514540672302246
1717002216313297400,1.57529736328125,0.9910996556282043,0.062306419014930725,1.6898325681686401
1717002216322962700,1.584962646484375,1.3081294298171997,0.5980194807052612,1.1907703876495361
1717002216332628200,1.594628173828125,1.5800328254699707,1.0098068714141846,0.6342121958732605
1717002216342293800,1.604293701171875,1.82559335231781,1.4471734762191772,0.1498102843761444
1717002216351959000,1.613958984375,2.281285524368286,2.105056047439575,-0.2148655205965042
1717002216361624600,1.62362451171875,3.074165105819702,2.8356292247772217,-0.4683671295642853
1717002216371290000,1.6332900390625,4.120012283325195,3.4855709075927734,-0.659562349319458
1717002216380955400,1.642955322265625,5.096146106719971,3.8833086490631104,-0.8703046441078186
1717002216390621000,1.652620849609375,5.733870506286621,4.0775580406188965,-1.1146435737609863
1717002216400286500,1.662286376953125,6.254923343658447,4.500875473022461,-1.4530528783798218
1717002216409951700,1.67195166015625,6.65625,5.125161170959473,-1.7927603721618652
1717002216419617300,1.6816171875,6.801707744598389,5.571079730987549,-2.081691026687622
1717002216429282800,1.69128271484375,6.422906398773193,5.476398468017578,-2.1727073192596436
1717002216438948000,1.700947998046875,5.537177562713623,5.305972099304199,-1.841628074645996
1717002216448613600,1.710613525390625,4.3087639808654785,5.114776611328125,-1.1256388425827026
1717002216458279200,1.720279052734375,2.8469300270080566,4.449563980102539,-0.25029465556144714
1717002216467944400,1.7299443359375,1.4804646968841553,3.420210123062134,0.5285356044769287
1717002216477610000,1.73960986328125,0.4975350797176361,2.3726069927215576,0.4784461259841919
1717002216487275500,1.749275634765625,0.013744063675403595,1.9560092687606812,-1.0926530361175537
1717002216496940800,1.75894091796875,-0.3167243003845215,2.350005865097046,-2.477520227432251
1717002216506606300,1.7686064453125,-0.7907418012619019,2.7507214546203613,-2.934433937072754
1717002216516271900,1.77827197265625,-1.247120976448059,2.913817882537842,-2.798214912414551
1717002216525937200,1.787937255859375,-1.5629290342330933,2.891216516494751,-2.431095838546753
1717002216535602700,1.797602783203125,-1.677768349647522,2.728731155395508,-2.067641496658325
1717002216545268000,1.80726806640625,-1.6124076843261719,2.538146734237671,-1.7567203044891357
1717002216554933500,1.81693359375,-1.4285426139831543,2.3842132091522217,-1.476875901222229
1717002216564599000,1.82659912109375,-1.1688562631607056,2.13620924949646,-1.2924001216888428
1717002216574264300,1.836264404296875,-0.855491578578949,1.6744086742401123,-1.1928319931030273
1717002216583929900,1.845929931640625,-0.4175141155719757,0.888171911239624,-1.095096468925476
1717002216593595400,1.855595458984375,0.21349111199378967,-0.22967857122421265,-0.8806890249252319
1717002216603260700,1.8652607421875,0.9843803644180298,-1.3169866800308228,-0.5074613690376282
1717002216612926200,1.87492626953125,1.7486265897750854,-2.1514804363250732,-0.005344913341104984
1717002216622591700,1.884591796875,2.28983736038208,-2.634049654006958,0.5218162536621094
1717002216632257000,1.894257080078125,2.3631389141082764,-2.625497817993164,0.9927794933319092
1717002216641922600,1.903922607421875,1.7785581350326538,-2.1294898986816406,1.2903385162353516
1717002216651588000,1.913588134765625,0.6117635369300842,-1.3878449201583862,1.1974897384643555
1717002216661253400,1.92325341796875,-0.555565595626831,-0.5674771070480347,0.6256603002548218
1717002216670919000,1.9329189453125,-1.087613582611084,0.32252734899520874,-0.09147437661886215
1717002216680584400,1.94258447265625,-0.9721634387969971,1.0220237970352173,-0.5917583107948303
1717002216690249700,1.952249755859375,-0.647803544998169,1.4178528785705566,-0.9148964881896973
1717002216699915300,1.961915283203125,-0.43583953380584717,1.5748405456542969,-1.2209309339523315
1717002216709580800,1.971580810546875,-0.3820849657058716,1.4496169090270996,-1.556286096572876
1717002216719246000,1.98124609375,-0.377198189496994,1.109375,-1.8593426942825317
1717002216728911600,1.99091162109375,-0.3161134421825409,0.6603258848190308,-2.0535922050476074
1717002216738577200,2.0005771484375,-0.222042977809906,0.1453816443681717,-2.17698335647583
1717002216748242400,2.010242431640625,-0.16584503650665283,-0.3274141252040863,-2.277773141860962
1717002216757908000,2.019907958984375,-0.17500774562358856,-0.5522059202194214,-2.2734971046447754
1717002216767573500,2.029573486328125,-0.28068432211875916,-0.5583143830299377,-2.150716781616211
1717002216777238800,2.03923876953125,-0.46699273586273193,-0.4049917459487915,-2.0474836826324463
1717002216786904300,2.048904296875,-0.6667397618293762,-0.15026842057704926,-2.0713067054748535
1717002216796569900,2.05856982421875,-0.8017370104789734,0.18569757044315338,-2.1641554832458496
1717002216806235100,2.068235107421875,-0.8017370104789734,0.5045598149299622,-2.1433866024017334
1717002216815900700,2.077900634765625,-0.6844543814659119,0.7348492741584778,-1.944250464439392
1717002216825566200,2.087566162109375,-0.5457920432090759,0.8771766424179077,-1.6602064371109009
1717002216835231500,2.0972314453125,-0.4859289824962616,0.9303203821182251,-1.4298406839370728
1717002216844897000,2.10689697265625,-0.5274665951728821,0.8741224408149719,-1.3296617269515991
1717002216854562600,2.1165625,-0.6923953890800476,0.707361102104187,-1.3400461673736572
1717002216864227800,2.126227783203125,-0.9965972900390625,0.49051034450531006,-1.4078502655029297
1717002216873893400,2.135893310546875,-1.3045406341552734,0.3512371778488159,-1.440835952758789
1717002216883559000,2.145558837890625,-1.4700802564620972,0.33352261781692505,-1.3895248174667358
1717002216893224200,2.15522412109375,-1.5079528093338013,0.4227063059806824,-1.3296617269515991
1717002216902889700,2.1648896484375,-1.51161789894104,0.5332696437835693,-1.3663126230239868
1717002216912555300,2.17455517578125,-1.5403276681900024,0.5821374654769897,-1.5037531852722168
1717002216922220500,2.184220458984375,-1.5989691019058228,0.5906893014907837,-1.6394376754760742
1717002216931886000,2.193885986328125,-1.669216513633728,0.5668662786483765,-1.6846404075622559
1717002216941551600,2.203551513671875,-1.7461832761764526,0.4868452548980713,-1.6492112874984741
1717002216951217000,2.213216796875,-1.8115439414978027,0.38727715611457825,-1.5678921937942505
1717002216960882400,2.22288232421875,-1.8414753675460815,0.31947311758995056,-1.4402251243591309
1717002216970547700,2.232547607421875,-1.8359777927398682,0.3042019307613373,-1.2716312408447266
1717002216980213200,2.242213134765625,-1.8133764266967773,0.2999260127544403,-1.0969289541244507
1717002216989878800,2.251878662109375,-1.7919968366622925,0.32191649079322815,-0.9600991606712341
1717002216999544000,2.2615439453125,-1.7864991426467896,0.40010493993759155,-0.8800781965255737
1717002217009209600,2.271209716796875,-1.7761147022247314,0.4874561131000519,-0.8648070096969604
1717002217018875100,2.280875244140625,-1.72419273853302,0.4856235682964325,-0.9246700406074524
1717002217028540400,2.29054052734375,-1.6398957967758179,0.41354358196258545,-1.042563557624817
1717002217038206000,2.3002060546875,-1.5366625785827637,0.37689274549484253,-1.1641221046447754
1717002217047871500,2.30987158203125,-1.4358727931976318,0.3762819170951843,-1.2459757328033447
1717002217057536800,2.319536865234375,-1.3491325378417969,0.3310792148113251,-1.2563600540161133
1717002217067202300,2.329202392578125,-1.2746092081069946,0.2638860046863556,-1.1964970827102661
1717002217076867800,2.338867919921875,-1.184738278388977,0.15393351018428802,-1.084712028503418
1717002217086533000,2.348533203125,-1.0118684768676758,-0.02993151545524597,-0.9362761378288269
1717002217096198700,2.35819873046875,-0.7608102560043335,-0.33718767762184143,-0.7823426127433777
1717002217105864200,2.3678642578125,-0.4566083252429962,-0.7379034757614136,-0.6394043564796448
1717002217115529500,2.377529541015625,-0.14690876007080078,-1.0121738910675049,-0.5111264586448669
1717002217125195000,2.387195068359375,0.13957859575748444,-1.1373976469039917,-0.37918344140052795
1717002217134860300,2.3968603515625,0.3949127495288849,-1.199093222618103,-0.20753535628318787
1717002217144525800,2.40652587890625,0.6313106417655945,-1.2381874322891235,0.03497100621461868
1717002217154191400,2.41619140625,0.8805363178253174,-1.3084348440170288,0.33856210112571716
1717002217163857000,2.42585693359375,1.1712995767593384,-1.4452645778656006,0.6610894203186035
1717002217173522200,2.435522216796875,1.492681622505188,-1.596754789352417,0.9549070000648499
1717002217183187700,2.445187744140625,1.8463622331619263,-1.77642023563385,1.2292537689208984
1717002217192853200,2.454853271484375,2.263570785522461,-2.0128180980682373,1.4961940050125122
1717002217202518500,2.4645185546875,2.7479727268218994,-2.3231284618377686,1.7643558979034424
1717002217212184000,2.47418408203125,3.2219901084899902,-2.7220118045806885,2.017246723175049
1717002217221849300,2.483849365234375,3.646528959274292,-3.2919323444366455,2.049010753631592
1717002217231515000,2.493514892578125,3.837724208831787,-4.077481746673584,1.2781215906143188
1717002217241180400,2.503180419921875,3.742432117462158,-4.089698791503906,0.12232216447591782
1717002217250845700,2.512845703125,3.4968714714050293,-2.6792523860931396,-0.35474956035614014
1717002217260511200,2.52251123046875,3.01918888092041,-0.19424942135810852,0.15958385169506073
1717002217270176800,2.5321767578125,2.517683267593384,1.3390535116195679,0.8974873423576355
1717002217279842000,2.541842041015625,2.164613723754883,1.9407380819320679,1.162671446800232
1717002217289507600,2.551507568359375,1.9526495933532715,2.236999034881592,0.9420791864395142
1717002217299173000,2.561173095703125,1.8836238384246826,2.274871587753296,0.6366555690765381
1717002217308838400,2.57083837890625,1.8738503456115723,1.9450139999389648,0.6048914790153503
1717002217318504000,2.58050390625,1.8769046068191528,1.196115255355835,0.9542961120605469
1717002217328169500,2.59016943359375,1.983191967010498,0.18019993603229523,1.5438400506973267
1717002217337834800,2.599834716796875,2.242802143096924,-0.7892146706581116,2.058784246444702
1717002217347500300,2.609500244140625,2.6636757850646973,-1.4977974891662598,2.324502944946289
1717002217357165800,2.619165771484375,3.2604734897613525,-1.7489320039749146,2.0422914028167725
1717002217366831000,2.6288310546875,4.046023368835449,-1.1636639833450317,0.6323796510696411
1717002217376496600,2.63849658203125,4.730859279632568,-0.7238540053367615,-0.5447230339050293
1717002217386162000,2.648161865234375,5.21098518371582,-0.809983491897583,-0.9961391687393188
1717002217395827500,2.657827392578125,5.432723045349121,-1.1331216096878052,-1.1170868873596191
1717002217405493000,2.667492919921875,5.499305248260498,-1.4361019134521484,-1.1012048721313477
1717002217415158300,2.677158203125,5.442496299743652,-1.5289506912231445,-1.1317472457885742
1717002217424823800,2.68682373046875,5.301390647888184,-1.4446537494659424,-1.3088929653167725
1717002217434489300,2.6964892578125,5.0900373458862305,-1.3377554416656494,-1.6247773170471191
1717002217444154600,2.706154541015625,4.775451183319092,-1.6529526710510254,-2.0309908390045166
1717002217453820200,2.715820068359375,4.280054092407227,-2.6493208408355713,-2.0542030334472656
1717002217463485700,2.725485595703125,3.592163562774658,-3.2485620975494385,-1.7854301929473877
1717002217473151000,2.73515087890625,2.8487625122070312,-3.1874773502349854,-1.6131712198257446
1717002217482816500,2.74481640625,2.2238657474517822,-2.9742915630340576,-1.5367389917373657
1717002217492482000,2.75448193359375,1.822539210319519,-3.0286569595336914,-1.4170129299163818
1717002217502147300,2.764147216796875,1.6515018939971924,-3.3963871002197266,-1.0987615585327148
1717002217511812900,2.773812744140625,1.6704381704330444,-3.677987813949585,-0.6308525204658508
1717002217521478400,2.783478515625,1.6704381704330444,-3.805654764175415,-0.0847550556063652
1717002217531143700,2.793143798828125,1.5146721601486206,-4.016396999359131,0.4399627447128296
1717002217540809200,2.802809326171875,1.319124698638916,-4.530807018280029,0.8614473342895508
1717002217550474800,2.812474853515625,1.1853491067886353,-5.261380195617676,1.1492327451705933
1717002217560140000,2.82214013671875,1.1584718227386475,-5.943085670471191,1.350812315940857
1717002217569805600,2.8318056640625,1.2549856901168823,-6.4812421798706055,1.4937505722045898
1717002217579471000,2.84147119140625,1.4987901449203491,-6.6437273025512695,1.5078001022338867
1717002217589136400,2.851136474609375,1.8292584419250488,-5.76044225692749,1.2042089700698853
1717002217598802000,2.860802001953125,2.107804775238037,-3.935154438018799,0.5951179265975952
1717002217608467500,2.870467529296875,2.1731655597686768,-2.257767915725708,0.06368082761764526
1717002217618132700,2.8801328125,1.9111119508743286,-1.277281641960144,-0.18798823654651642
1717002217627798300,2.88979833984375,1.3734900951385498,-1.0048437118530273,-0.17332790791988373
1717002217637463600,2.899463623046875,0.7467607855796814,-1.3994510173797607,0.0850604772567749
1717002217647129000,2.909129150390625,0.11270131915807724,-2.053133964538574,0.4136963188648224
1717002217656794600,2.918794677734375,-0.38452833890914917,-2.524097204208374,0.6763606071472168
1717002217666460000,2.9284599609375,-0.689341127872467,-2.792870044708252,0.8553388714790344
1717002217676125400,2.93812548828125,-0.8090671896934509,-3.0262136459350586,0.9695672988891602
1717002217685791000,2.947791015625,-0.7583668828010559,-3.178314685821533,1.074633002281189
1717002217695456300,2.957456298828125,-0.5897729992866516,-3.200305223464966,1.1877161264419556
1717002217705121800,2.967121826171875,-0.37536564469337463,-2.9559662342071533,1.2402490377426147
1717002217714787300,2.976787353515625,-0.17989452183246613,-2.3866565227508545,1.165725588798523
1717002217724452600,2.98645263671875,-0.04306473210453987,-1.7286977767944336,1.0398147106170654
1717002217734118100,2.9961181640625,0.003970507066696882,-1.1679399013519287,0.9561286568641663
1717002217743783700,3.00578369140625,-0.02229592576622963,-0.8478559851646423,0.964680552482605
1717002217753449000,3.015448974609375,-0.058335911482572556,-0.7036960124969482,1.0630269050598145
1717002217763114500,3.025114501953125,-0.10659284889698029,-0.577861487865448,1.20909583568573
1717002217772779800,3.03477978515625,-0.16462333500385284,-0.41232189536094666,1.3795222043991089
1717002217782445300,3.0444453125,-0.24097923934459686,-0.25289076566696167,1.5902644395828247
1717002217792110800,3.05411083984375,-0.3277195692062378,-0.2339545041322708,1.838268518447876
1717002217801776000,3.063776123046875,-0.42423340678215027,-0.023823043331503868,2.0184683799743652
1717002217811441700,3.073441650390625,-0.4431696832180023,0.2473931461572647,2.055730104446411
1717002217821107200,3.083107177734375,-0.3826957941055298,0.09834641218185425,1.9262304306030273
1717002217830772500,3.0927724609375,-0.3246653079986572,0.1582094430923462,1.5982054471969604
1717002217840438000,3.10243798828125,-0.2092151790857315,0.17775654792785645,1.217647671699524
1717002217850103600,3.112103515625,-0.10109522193670273,0.10140064358711243,0.8400676846504211
1717002217859768800,3.121768798828125,-0.02901524491608143,0.31092125177383423,0.4869979918003082
1717002217869434400,3.131434326171875,0.02229592576622963,0.7348492741584778,0.31473904848098755
1717002217879100000,3.141099853515625,-0.005803049076348543,1.2938508987426758,0.40575528144836426
1717002217888765200,3.15076513671875,-0.07666133344173431,1.968837022781372,0.7069029808044434
1717002217898430700,3.1604306640625,-0.17745113372802734,2.480116128921509,1.0251544713974
1717002217908096300,3.17009619140625,-0.28312769532203674,2.5925121307373047,1.157173752784729
1717002217917761500,3.179761474609375,-0.3155026137828827,2.45995831489563,1.1028083562850952
1717002217927427000,3.189427001953125,-0.23975755274295807,2.3750505447387695,0.9286405444145203
1717002217937092600,3.199092529296875,-0.09926267713308334,2.503328323364258,0.7142331600189209
1717002217946758000,3.2087578125,0.03268032893538475,2.8087520599365234,0.5267030596733093
1717002217956423400,3.21842333984375,0.11514470726251602,3.183812379837036,0.40453359484672546
1717002217966088700,3.228088623046875,0.12186402827501297,3.585139036178589,0.3214583694934845
1717002217975754200,3.237754150390625,0.05650337040424347,4.0109758377075195,0.20234315097332
1717002217985419800,3.247419677734375,-0.058335911482572556,4.386646747589111,0.0038177953101694584
1717002217995085000,3.2570849609375,-0.20005246996879578,4.639537811279297,-0.2967190444469452
1717002218004750600,3.26675048828125,-0.3374931216239929,4.638926982879639,-0.6968240141868591
1717002218014416100,3.276416015625,-0.43950459361076355,4.299295902252197,-1.1580137014389038
1717002218024081400,3.286081298828125,-0.48043137788772583,3.6548519134521484,-1.6125603914260864
1717002218033747000,3.295746826171875,-0.45172154903411865,2.7940917015075684,-1.990064024925232
1717002218043412500,3.30541259765625,-0.3833066523075104,1.7080053091049194,-2.2160775661468506
1717002218053077800,3.315077880859375,-0.3503209054470062,0.6206207871437073,-2.2710537910461426
1717002218062743300,3.324743408203125,-0.3906368315219879,-0.12522368133068085,-2.183091640472412
1717002218072408600,3.33440869140625,-0.4987567961215973,-0.16187451779842377,-2.0224390029907227
1717002218082074000,3.34407421875,-0.6398624777793884,0.5344913601875305,-1.8575102090835571
1717002218091739600,3.35373974609375,-0.7498149871826172,1.5772839784622192,-1.689527153968811
1717002218101405000,3.363405029296875,-0.8084563612937927,2.41414475440979,-1.4561071395874023
1717002218111070500,3.373070556640625,-0.9000834226608276,2.709794759750366,-1.1390774250030518
1717002218120736000,3.382736083984375,-1.058903694152832,2.514934539794922,-0.797613799571991
1717002218130401300,3.3924013671875,-1.2348277568817139,2.0861196517944336,-0.5361711978912354
1717002218140066800,3.40206689453125,-1.372344732284546,1.6957883834838867,-0.4158342778682709
1717002218149732400,3.411732421875,-1.4474788904190063,1.6078263521194458,-0.4659237563610077
1717002218159397600,3.421397705078125,-1.460917592048645,1.7770310640335083,-0.6858287453651428
1717002218169063200,3.431063232421875,-1.4285426139831543,1.844224214553833,-0.9753703474998474
1717002218178728700,3.440728759765625,-1.3650145530700684,1.6774629354476929,-1.2026054859161377
1717002218188394000,3.45039404296875,-1.2813284397125244,1.2999593019485474,-1.3369919061660767
1717002218198059500,3.4600595703125,-1.203674554824829,0.80937260389328,-1.3980766534805298
1717002218207725000,3.46972509765625,-1.1566393375396729,0.4563029110431671,-1.390135645866394
1717002218217390300,3.479390380859375,-1.10532808303833,0.45080527663230896,-1.2734638452529907
1717002218227055900,3.489055908203125,-1.0277504920959473,0.8124268651008606,-1.0553913116455078
1717002218236721400,3.498721435546875,-0.9672766327857971,1.200391173362732,-0.8183826208114624
1717002218246386700,3.50838671875,-0.9159654378890991,1.3732609748840332,-0.6076403260231018
1717002218256052200,3.51805224609375,-0.8603783845901489,1.4294589757919312,-0.42927291989326477
1717002218265717500,3.527717529296875,-0.8151756525039673,1.4141877889633179,-0.30282753705978394
1717002218275383000,3.537383056640625,-0.7754706144332886,1.257200002670288,-0.26067906618118286
1717002218285048600,3.547048583984375,-0.7235485911369324,0.9963682293891907,-0.28999972343444824
1717002218294713900,3.5567138671875,-0.6636855602264404,0.6890357136726379,-0.3712424337863922
1717002218304379400,3.56637939453125,-0.5824428796768188,0.3530697226524353,-0.4799732267856598
1717002218314045000,3.576044921875,-0.4859289824962616,0.010995250195264816,-0.5606050491333008
1717002218323710200,3.585710205078125,-0.3765873312950134,-0.34512871503829956,-0.6003101468086243
1717002218333375700,3.595375732421875,-0.24586601555347443,-0.6157340407371521,-0.6033644080162048
1717002218343041000,3.605041015625,-0.09559759497642517,-0.786771297454834,-0.5783196687698364
1717002218352706600,3.61470654296875,0.0791047215461731,-0.9058864712715149,-0.5233433842658997
1717002218362372000,3.6243720703125,0.2623589038848877,-1.007897973060608,-0.4243861436843872
1717002218372037400,3.634037353515625,0.42606595158576965,-1.1264023780822754,-0.25945737957954407
1717002218381703000,3.643702880859375,0.559841513633728,-1.2198619842529297,-0.012675080448389053
1717002218391368400,3.653368408203125,0.6826218366622925,-1.2546802759170532,0.2689255177974701
1717002218401033700,3.66303369140625,0.8023478984832764,-1.1734375953674316,0.5419742465019226
1717002218410699300,3.67269921875,0.8646543025970459,-0.9077190160751343,0.7612683773040771
1717002218420364800,3.68236474609375,0.8127322793006897,-0.4178195297718048,0.8773293495178223
1717002218430030000,3.692030029296875,0.6331431865692139,0.26632940769195557,0.8382351398468018
1717002218439695600,3.701695556640625,0.3527642786502838,0.9352834820747375,0.5572454333305359
1717002218449361200,3.711361083984375,0.04306473210453987,1.4123551845550537,0.1247655525803566
1717002218459026400,3.7210263671875,-0.1585148572921753,1.5314704179763794,-0.07559234648942947
1717002218468692000,3.73069189453125,-0.2495311051607132,1.2156623601913452,0.06978929787874222
1717002218478357500,3.740357421875,-0.3545968234539032,0.7751652002334595,0.3574983477592468
1717002218488022800,3.750022705078125,-0.4553866386413574,0.4727957844734192,0.5847335457801819
1717002218497688300,3.759688232421875,-0.4462239146232605,0.4618005156517029,0.6067240238189697
1717002218507353900,3.769353759765625,-0.34726667404174805,0.6670452356338501,0.3746020793914795
1717002218517019100,3.77901904296875,-0.24097923934459686,0.9260444641113281,-0.04443913698196411
1717002218526684700,3.7886845703125,-0.16462333500385284,1.0562312602996826,-0.49890950322151184
1717002218536350000,3.798349853515625,-0.11025793105363846,0.9346726536750793,-0.8220477104187012
1717002218546015500,3.808015380859375,-0.055892523378133774,0.6151232123374939,-0.922837495803833
1717002218555681000,3.817680908203125,0.01435491070151329,0.26816195249557495,-0.825101912021637
1717002218565346300,3.82734619140625,0.10170606523752213,-0.004275931045413017,-0.6241331696510315
1717002218575011800,3.83701171875,0.19944162666797638,-0.25533416867256165,-0.3962871730327606
1717002218584677400,3.846677490234375,0.3045073449611664,-0.5491516590118408,-0.15378080308437347
1717002218594342700,3.8563427734375,0.39918869733810425,-0.8619054555892944,0.11315945535898209
1717002218604008200,3.86600830078125,0.42423340678215027,-1.0781453847885132,0.4100312292575836
1717002218613673500,3.875673583984375,0.33382803201675415,-1.0085088014602661,0.73255854845047
1717002218623339000,3.885339111328125,0.15973655879497528,-0.7464553713798523,1.057529330253601
1717002218633004500,3.895004638671875,-0.0009162708884105086,-0.5619794726371765,1.3685269355773926
1717002218642669800,3.904669921875,-0.08582404255867004,-0.5082249045372009,1.6250827312469482
1717002218652335400,3.91433544921875,-0.09865183383226395,-0.46363306045532227,1.791844129562378
1717002218662001000,3.9240009765625,-0.08093725889921188,-0.2602209448814392,1.8504854440689087
1717002218671666200,3.933666259765625,-0.0662769302725792,0.30481278896331787,1.8407118320465088
1717002218681331700,3.943331787109375,-0.10781454294919968,1.7886371612548828,1.6537926197052002
1717002218690997200,3.952997314453125,-0.21593450009822845,3.469688892364502,1.2115391492843628
1717002218700662500,3.96266259765625,-0.2739650011062622,3.550320625305176,0.8980981707572937
1717002218710328000,3.972328125,-0.26602399349212646,2.2394423484802246,0.7722636461257935
1717002218719993600,3.98199365234375,-0.1713426560163498,0.6114581227302551,0.6507050395011902
1717002218729659000,3.991658935546875,0.05344913527369499,-0.6328377723693848,0.48333290219306946
1717002218739324400,4.001324462890625,0.34482327103614807,-1.2259705066680908,0.3202366828918457
1717002218748990000,4.010989990234375,0.5635066032409668,-1.221083641052246,0.20784078538417816
1717002218758655200,4.0206552734375,0.6655181050300598,-0.8777875304222107,0.1632489264011383
1717002218768320800,4.03032080078125,0.6917845010757446,-0.469741553068161,0.19318044185638428
1717002218777986000,4.039986083984375,0.6868977546691895,-0.12155860662460327,0.2725905776023865
1717002218787651600,4.049651611328125,0.7162184119224548,0.1588202863931656,0.39414918422698975
1717002218797317000,4.059317138671875,0.7779139876365662,0.42514967918395996,0.5566345453262329
1717002218806982400,4.068982421875,0.8041804432868958,0.7055285573005676,0.7209524512290955
1717002218816648000,4.07864794921875,0.7632536292076111,0.9254335761070251,0.8467870354652405
1717002218826313500,4.0883134765625,0.6667397618293762,1.0036983489990234,0.9231429100036621
1717002218835978800,4.097978759765625,0.5708367824554443,0.8386932611465454,0.9475768208503723
1717002218845644300,4.107644287109375,0.5329642295837402,0.4837910234928131,0.9433009028434753
1717002218855309600,4.1173095703125,0.5457920432090759,0.07146912813186646,0.9335273504257202
1717002218864975000,4.12697509765625,0.568393349647522,-0.2596100866794586,0.9286405444145203
1717002218874640600,4.136640625,0.5622848868370056,-0.44958359003067017,0.9097042679786682
1717002218884306000,4.146305908203125,0.5231906771659851,-0.4813476502895355,0.8516737818717957
1717002218893971500,4.155971435546875,0.4627167880535126,-0.38483378291130066,0.7594358325004578
1717002218903637000,4.165636962890625,0.3967452943325043,-0.2095206081867218,0.6665870547294617
1717002218913302300,4.17530224609375,0.32344362139701843,-0.02504473738372326,0.6109999418258667
1717002218922967800,4.1849677734375,0.24342262744903564,0.1319430023431778,0.6055023670196533
1717002218932633300,4.19463330078125,0.16095824539661407,0.2596100866794586,0.6342121958732605
1717002218942298600,4.204298583984375,0.08643488585948944,0.3671191930770874,0.681858241558075
1717002218951964200,4.213964111328125,0.03695625811815262,0.4850127100944519,0.7466080784797668
1717002218961629700,4.223629638671875,0.020463382825255394,0.6817055344581604,0.8162446618080139
1717002218971295000,4.233294921875,0.027793550863862038,0.9914814829826355,0.862669050693512
1717002218980960500,4.24296044921875,0.040010496973991394,1.3311125040054321,0.862669050693512
1717002218990625800,4.252625732421875,0.0650552362203598,1.6017178297042847,0.8064711093902588
1717002219000291300,4.262291259765625,0.11514470726251602,1.7416019439697266,0.6904101371765137
1717002219009956900,4.271956787109375,0.18600298464298248,1.753208041191101,0.5364766120910645
1717002219019622100,4.2816220703125,0.2648022770881653,1.6841822862625122,0.4008685052394867
1717002219029287700,4.29128759765625,0.34543412923812866,1.5455199480056763,0.32695600390434265
1717002219038953200,4.300953125,0.41079479455947876,1.3860887289047241,0.3226800560951233
1717002219048618500,4.310618408203125,0.4468347728252411,1.3097329139709473,0.3507790267467499
1717002219058284000,4.320283935546875,0.4474456310272217,1.4202961921691895,0.3605526089668274
1717002219067949300,4.32994921875,0.4333961308002472,1.705561876296997,0.3501681983470917
1717002219077614800,4.33961474609375,0.42362257838249207,2.0372519493103027,0.3574983477592468
1717002219087280400,4.3492802734375,0.4205683469772339,2.312133312225342,0.4008685052394867
1717002219096945700,4.358945556640625,0.4175141155719757,2.5137128829956055,0.4491254389286041
1717002219106611200,4.368611083984375,0.41201648116111755,2.68902587890625,0.4631749391555786
1717002219116276700,4.37827685546875,0.40468630194664,2.913817882537842,0.4631749391555786
1717002219125942000,4.38794189453125,0.37170055508613586,3.330415725708008,0.5187620520591736
1717002219135607600,4.397607666015625,0.28373855352401733,4.010365009307861,0.6757497787475586
1717002219145273000,4.407273193359375,0.1817270666360855,4.761096477508545,0.8602256774902344
1717002219154938400,4.4169384765625,0.1450762301683426,5.229005336761475,0.9280297160148621
1717002219164604000,4.42660400390625,0.1841704547405243,5.27298641204834,0.8101361989974976
1717002219174269400,4.43626953125,0.222042977809906,5.050637722015381,0.5847335457801819
1717002219183934700,4.445934814453125,0.22876229882240295,4.698178768157959,0.3495573401451111
1717002219193600300,4.455600341796875,0.22631891071796417,4.269975185394287,0.1772984117269516
1717002219203265500,4.465265625,0.23303823173046112,4.000591278076172,0.2029540091753006
1717002219212931000,4.47493115234375,0.24036839604377747,3.905299186706543,0.36605021357536316
1717002219222596600,4.4845966796875,0.2098260372877121,3.922402858734131,0.5285356044769287
1717002219232262000,4.494261962890625,0.12125317752361298,4.003034591674805,0.5401417016983032
1717002219241927400,4.503927490234375,-0.008246437646448612,4.105046272277832,0.43446511030197144
1717002219251593000,4.513593017578125,-0.21776704490184784,4.095883369445801,0.3581092059612274
1717002219261258200,4.52325830078125,-0.4327852725982666,3.8283324241638184,0.3324536085128784
1717002219270923800,4.532923828125,-0.5525113344192505,3.389056921005249,0.30985227227211
1717002219280589000,4.542589111328125,-0.591605544090271,2.9064877033233643,0.24998924136161804
1717002219290254600,4.552254638671875,-0.5708367824554443,2.4562931060791016,0.14125843346118927
1717002219299920100,4.561920166015625,-0.47798797488212585,2.0677943229675293,0.011147962883114815
1717002219309585400,4.57158544921875,-0.33382803201675415,1.7947455644607544,-0.07986827939748764
1717002219319251000,4.5812509765625,-0.17439688742160797,1.8136818408966064,-0.04871506989002228
1717002219328916500,4.59091650390625,-0.019241688773036003,2.1838552951812744,0.13331741094589233
1717002219338581800,4.600581787109375,0.11575555801391602,2.5509746074676514,0.3245126008987427
1717002219348247300,4.610247314453125,0.23792500793933868,2.738504648208618,0.45523393154144287
1717002219357912800,4.619912841796875,0.34665581583976746,2.8142497539520264,0.5285356044769287
1717002219367578000,4.629578125,0.4333961308002472,2.879610300064087,0.5798467397689819
1717002219377243600,4.63924365234375,0.5189147591590881,2.974902391433716,0.6812474131584167
1717002219386909200,4.6489091796875,0.6300889253616333,3.076303243637085,0.862669050693512
1717002219396574500,4.658574462890625,0.7937960028648376,3.1703736782073975,1.1113601922988892
1717002219406240000,4.668239990234375,0.9562813639640808,3.3065924644470215,1.374024510383606
1717002219415905300,4.6779052734375,1.0570712089538574,3.518556594848633,1.6000380516052246
1717002219425570800,4.68757080078125,1.123653531074524,3.72632098197937,1.7509173154830933
1717002219435236400,4.697236328125,1.1859599351882935,3.8136720657348633,1.791844129562378
1717002219444901600,4.706901611328125,1.2696460485458374,3.749533176422119,1.7252616882324219
1717002219454567200,4.716567138671875,1.3478344678878784,3.466634511947632,1.5951513051986694
1717002219464232400,4.726232421875,1.382652759552002,2.9303107261657715,1.4674842357635498
1717002219473898000,4.73589794921875,1.3850961923599243,2.2797582149505615,1.4167838096618652
1717002219483563500,4.7455634765625,1.3631056547164917,1.6713544130325317,1.4607648849487305
1717002219493228800,4.755228759765625,1.314848780632019,1.2321553230285645,1.5242929458618164
1717002219502894300,4.764894287109375,1.2592616081237793,1.0886061191558838,1.5279580354690552
1717002219512559900,4.774559814453125,1.1651911735534668,1.2077213525772095,1.4687058925628662
1717002219522225200,4.78422509765625,1.1102149486541748,1.3983057737350464,1.3868523836135864
1717002219531890700,4.793890625,1.1248751878738403,1.604161262512207,1.283008337020874
1717002219541556000,4.803555908203125,1.0955545902252197,1.8387266397476196,1.1553412675857544
1717002219551221500,4.813221435546875,1.0595145225524902,1.9993793964385986,1.038593053817749
1717002219560887000,4.822886962890625,1.0173660516738892,1.970058798789978,0.9475768208503723
1717002219570552300,4.83255224609375,0.9715525507926941,1.7794743776321411,0.8736643195152283
1717002219580217900,4.8422177734375,0.9074136018753052,1.5161992311477661,0.8009734749794006
1717002219589883400,4.85188330078125,0.7363763451576233,1.2565891742706299,0.7655443549156189
1717002219599548700,4.861548583984375,0.4749337434768677,1.1637403964996338,0.8541171550750732
1717002219609214200,4.871214111328125,0.12369657307863235,1.2400963306427002,1.025765299797058
1717002219618879700,4.880879638671875,-0.2764083743095398,1.4764941930770874,1.1388483047485352
1717002219628545000,4.890544921875,-0.6319214701652527,2.0635182857513428,1.061805248260498
1717002219638210600,4.90021044921875,-0.9715525507926941,3.2113003730773926,0.7429429888725281
1717002219647875800,4.909875732421875,-1.1719105243682861,4.313345432281494,0.4100312292575836
1717002219657541400,4.919541259765625,-1.106549859046936,4.628542423248291,0.2170034945011139
1717002219667207000,4.92920703125,-0.8438854813575745,4.205836296081543,0.05085303261876106
1717002219676872200,4.9388720703125,-0.5537330508232117,3.7305970191955566,-0.016340164467692375
1717002219686537700,4.948537841796875,-0.32344362139701843,3.1477723121643066,0.4503471553325653
1717002219696203300,4.958203369140625,-0.26724568009376526,2.0311434268951416,1.226810336112976
1717002219705868500,4.96786865234375,-0.24036839604377747,1.2321553230285645,1.2359731197357178
1717002219715534000,4.9775341796875,-0.0778830274939537,1.389753818511963,0.8638907074928284
1717002219725199400,4.987199462890625,0.24220094084739685,1.816736102104187,0.362995982170105
1717002219734865000,4.996864990234375,0.5940489768981934,2.0684051513671875,-0.06948387622833252
1717002219744530400,5.006530517578125,0.9630007147789001,1.7990214824676514,-0.19654010236263275
1717002219754195700,5.01619580078125,1.262926697731018,0.16309621930122375,0.7142331600189209
1717002219763861200,5.025861328125,1.3808202743530273,-2.2363882064819336,2.2414276599884033
1717002219773526800,5.03552685546875,1.2000094652175903,-3.226571559906006,2.755150318145752
1717002219783192000,5.045192138671875,0.6508577466011047,-1.3762388229370117,2.070390462875366
1717002219792857600,5.054857666015625,-0.011300674639642239,2.2211170196533203,0.6647545099258423
1717002219802523100,5.064523193359375,-0.2635805904865265,3.8087854385375977,-0.09391776472330093
1717002219812188400,5.0741884765625,-0.1181989461183548,3.2778828144073486,-0.08292251825332642
1717002219821854000,5.08385400390625,-0.00519220158457756,2.4208641052246094,0.049020491540431976
1717002219831519500,5.09351953125,-0.11453386396169662,2.48622465133667,-0.11590826511383057
1717002219841184800,5.103184814453125,-0.27885177731513977,3.7336511611938477,-0.8348754644393921
1717002219850850300,5.112850341796875,-0.4853181540966034,5.002991676330566,-1.6174471378326416
1717002219860515600,5.122515625,-0.6771242022514343,5.491669654846191,-1.7994797229766846
1717002219870181000,5.13218115234375,-0.8383878469467163,5.962632656097412,-1.6101170778274536
1717002219879846700,5.1418466796875,-1.0405782461166382,6.885699272155762,-1.4609938859939575
1717002219889512000,5.151511962890625,-1.343634843826294,7.735998630523682,-1.390135645866394
1717002219899177500,5.161177490234375,-1.7229710817337036,8.03348159790039,-1.385859727859497
1717002219908842800,5.1708427734375,-2.107804775238037,7.9033708572387695,-1.5080292224884033
1717002219918508300,5.18050830078125,-2.384518623352051,7.357273578643799,-1.8440715074539185
1717002219928173800,5.190173828125,-2.3973464965820312,6.260115623474121,-2.2484524250030518
1717002219937839000,5.199839111328125,-2.1548399925231934,4.810575008392334,-2.537993907928467
1717002219947504600,5.209504638671875,-1.867130994796753,3.316977024078369,-2.752401351928711
1717002219957170200,5.219170166015625,-1.667994737625122,1.8723231554031372,-3.0254502296447754
1717002219966835500,5.22883544921875,-1.5165046453475952,0.5515950918197632,-3.278951644897461
1717002219976501000,5.2385009765625,-1.3277528285980225,-0.29687178134918213,-3.460984230041504
1717002219986166500,5.24816650390625,-1.091889500617981,-0.7391251921653748,-3.542226791381836
1717002219995831800,5.257831787109375,-0.8310576677322388,-0.7525638341903687,-3.3992886543273926
1717002220005497300,5.267497314453125,-0.587329626083374,0.1447708010673523,-3.0114006996154785
1717002220015163000,5.277162841796875,-0.37231141328811646,1.7080053091049194,-2.2356245517730713
1717002220024828200,5.286828125,-0.16279079020023346,2.6499316692352295,-1.0272923707962036
1717002220034493700,5.29649365234375,0.030847785994410515,2.4617908000946045,0.19745637476444244
1717002220044159200,5.3061591796875,0.144465371966362,1.7898588180541992,0.9194778203964233
1717002220053824500,5.315824462890625,0.23364907503128052,1.3677634000778198,1.0001096725463867
1717002220063490000,5.325489990234375,0.41140562295913696,1.2883532047271729,0.7679877281188965
1717002220073155300,5.3351552734375,0.5836645364761353,0.837471604347229,0.6739172339439392
1717002220082820900,5.34482080078125,0.7876875400543213,-0.07452336698770523,0.8932114243507385
1717002220092486400,5.354486328125,1.2000094652175903,-0.6908682584762573,1.3385953903198242
1717002220102151700,5.364151611328125,1.7724497318267822,-0.841747522354126,1.8981314897537231
1717002220111817200,5.373817138671875,2.2709009647369385,-0.9150491952896118,2.463776111602783
1717002220121482500,5.383482421875,2.5970935821533203,-0.9932376146316528,2.9420695304870605
1717002220131148000,5.39314794921875,2.700937509536743,-1.014006495475769,3.2865872383117676
1717002220140813600,5.4028134765625,2.5622751712799072,-1.0133955478668213,3.507103204727173
1717002220150478800,5.412478759765625,2.312438726425171,-0.869846522808075,3.6194989681243896
1717002220160144400,5.422144287109375,2.0772624015808105,-0.14721418917179108,3.53092622756958
1717002220169810000,5.431809814453125,1.7309120893478394,0.1319430023431778,3.5461974143981934
1717002220179475200,5.44147509765625,1.157250165939331,0.22479179501533508,3.7001309394836426
1717002220189140700,5.451140625,0.6178719997406006,0.2583884000778198,3.8516974449157715
1717002220198806300,5.46080615234375,0.37597647309303284,0.0916270911693573,3.8804070949554443
1717002220208471600,5.470471435546875,0.37170055508613586,-0.023212196305394173,3.650041341781616
1717002220218137000,5.48013720703125,0.5732801556587219,0.38422292470932007,2.9774985313415527
1717002220227802600,5.489802734375,0.8011261820793152,0.4874561131000519,2.1699585914611816
1717002220237468000,5.499468017578125,0.6801784038543701,-0.3011476993560791,1.7405328750610352
1717002220247133400,5.509133544921875,0.4572191834449768,-1.430604338645935,1.5774366855621338
1717002220256798700,5.518798828125,0.24586601555347443,-2.6939127445220947,1.4650408029556274
1717002220266464300,5.52846435546875,0.059557609260082245,-3.8740696907043457,1.300112009048462
1717002220276129800,5.5381298828125,-0.1188097894191742,-4.764761447906494,1.1008994579315186
1717002220285795000,5.547795166015625,-0.3106158375740051,-5.384771347045898,0.7637118101119995
1717002220295460600,5.557460693359375,-0.7333221435546875,-5.145318984985352,-0.5227325558662415
1717002220305126000,5.5671259765625,-1.2012311220169067,-3.5637593269348145,-1.5092508792877197
1717002220314791400,5.57679150390625,-1.3735663890838623,-1.52711820602417,-1.706630825996399
1717002220324457000,5.58645703125,-1.2452884912490845,0.47646087408065796,-1.5532318353652954
1717002220334122200,5.596122314453125,-0.8054021000862122,2.0922281742095947,-1.570946455001831
1717002220343787800,5.605787841796875,-0.18905723094940186,2.09039568901062,-1.347987174987793
1717002220353453300,5.615453369140625,0.2373141646385193,-0.18997350335121155,0.695907711982727
1717002220363118600,5.62511865234375,0.5195255875587463,-0.17653486132621765,2.449115753173828
1717002220372784000,5.6347841796875,1.0088142156600952,6.216134548187256,1.6647878885269165
1717002220382449400,5.644449462890625,0.8945857882499695,9.76469898223877,-0.2435753494501114
1717002220392115000,5.654114990234375,0.08215895295143127,8.883780479431152,-1.7286213636398315
1717002220401780500,5.663780517578125,-0.6203153729438782,6.2889018058776855,-2.6039655208587646
1717002220411445800,5.67344580078125,-0.6826218366622925,0.8081509470939636,-2.081691026687622
1717002220421111300,5.683111328125,-0.25808295607566833,-3.498398542404175,-0.5477772951126099
1717002220430776800,5.69277685546875,0.13713520765304565,-4.232026100158691,0.19745637476444244
1717002220440442000,5.702442138671875,0.6416950225830078,-4.099472522735596,0.282364159822464
1717002220450107600,5.712107666015625,1.2384928464889526,-3.874680519104004,0.30068957805633545
1717002220459773200,5.721773193359375,1.5562098026275635,-3.726855516433716,0.8034168481826782
1717002220469438500,5.7314384765625,1.3936480283737183,-3.481294870376587,1.8144453763961792
1717002220479104000,5.74110400390625,0.984991192817688,-2.59067964553833,2.4033021926879883
1717002220488769300,5.750769287109375,0.5885513424873352,-1.2027583122253418,2.2713592052459717
1717002220498434800,5.760434814453125,0.36253786087036133,0.36101073026657104,1.8168888092041016
1717002220508100400,5.770100341796875,0.3118375241756439,1.4337348937988281,1.2481900453567505
1717002220517765600,5.779765625,0.3637595474720001,1.6004961729049683,0.654370129108429
1717002220527431200,5.78943115234375,0.3521534502506256,1.1014339923858643,0.1107160672545433
1717002220537096700,5.7990966796875,0.17500774562358856,0.45263782143592834,-0.2796153426170349
1717002220546762000,5.808761962890625,-0.05772506445646286,0.05008947476744652,-0.5325061082839966
1717002220556427500,5.818427490234375,-0.197609081864357,0.3500154912471771,-0.8654178380966187
1717002220566092800,5.8280927734375,-0.29351210594177246,1.3970839977264404,-1.3131688833236694
1717002220575758300,5.83775830078125,-0.49448084831237793,2.7372829914093018,-1.703576683998108
1717002220585424000,5.847423828125,-0.8414421081542969,4.0341877937316895,-2.0242714881896973
1717002220595089200,5.857089111328125,-1.3631820678710938,5.046361923217773,-2.39627742767334
1717002220604754700,5.866754638671875,-2.0302271842956543,5.3994317054748535,-2.822648763656616
1717002220614420200,5.876420166015625,-2.6245815753936768,5.150816917419434,-3.071263551712036
1717002220624085500,5.88608544921875,-3.0002527236938477,4.701233386993408,-3.076150417327881
1717002220633751000,5.8957509765625,-3.192058801651001,4.051902770996094,-2.951537609100342
1717002220643416600,5.90541650390625,-3.195112943649292,3.2204630374908447,-2.8342549800872803
1717002220653081900,5.915081787109375,-3.0570614337921143,2.3897109031677246,-2.772559404373169
1717002220662747400,5.924747314453125,-2.7913429737091064,1.6805171966552734,-2.7743918895721436
1717002220672412700,5.93441259765625,-2.390627145767212,0.9865946769714355,-2.813486099243164
1717002220682078200,5.944078125,-2.0387790203094482,0.21257483959197998,-2.7780568599700928
1717002220691743700,5.95374365234375,-1.798105239868164,-0.5436540842056274,-2.6736021041870117
1717002220701409000,5.963408935546875,-1.6398957967758179,-1.0427162647247314,-2.613128185272217
1717002220711074600,5.973074462890625,-1.5091744661331177,-1.1306782960891724,-2.640005588531494
1717002220720740000,5.982739990234375,-1.4071630239486694,-1.1257915496826172,-2.836087465286255
1717002220730405400,5.9924052734375,-1.317368507385254,-1.1899304389953613,-3.227029800415039
1717002220740071000,6.00207080078125,-1.1920684576034546,-0.8802309036254883,-3.586207866668701
1717002220749736200,6.011736083984375,-1.0741748809814453,0.009773556143045425,-3.643627643585205
1717002220759401700,6.021401611328125,-1.0283613204956055,0.8057075142860413,-3.252685308456421
1717002220769067300,6.0310673828125,-1.031415581703186,1.0006442070007324,-2.402996778488159
1717002220778732500,6.040732666015625,-1.0692881345748901,0.832584798336029,-1.3070604801177979
1717002220788398000,6.050398193359375,-1.132816195487976,0.6193991303443909,-0.31443363428115845
1717002220798063600,6.060063720703125,-1.1444222927093506,0.45019441843032837,0.3061871826648712
1717002220807729000,6.06972900390625,-0.9886562824249268,0.1948602795600891,0.5462501645088196
1717002220817394400,6.07939453125,-0.6667397618293762,-0.22601348161697388,0.6397097706794739
1717002220827060000,6.08906005859375,-0.23364907503128052,-0.6737645268440247,0.8455653190612793
1717002220836725200,6.098725341796875,0.27885177731513977,-0.864959716796875,1.2329188585281372
1717002220846390800,6.108390869140625,0.8988617658615112,-0.8014315962791443,1.7417546510696411
1717002220856056000,6.11805615234375,1.6124076843261719,-0.7043069005012512,2.2738025188446045
1717002220865721600,6.1277216796875,2.2763986587524414,-0.578472375869751,2.775918960571289
1717002220875387100,6.13738720703125,2.7247605323791504,-0.4691306948661804,3.2487146854400635
1717002220885052400,6.147052490234375,2.93428111076355,-0.5082249045372009,3.678751230239868
1717002220894718000,6.156718017578125,2.935502767562866,-0.7098045349121094,4.053887844085693
1717002220904383200,6.16638330078125,2.7101001739501953,-1.0512681007385254,4.394740581512451
1717002220914048800,6.176048828125,2.277620315551758,-1.5894246101379395,4.595098495483398
1717002220923714300,6.18571435546875,1.7779473066329956,-2.0537447929382324,4.533402919769287
1717002220933379600,6.195379638671875,1.410140872001648,-2.103834390640259,4.263408660888672
1717002220943045000,6.205045166015625,1.2720893621444702,-1.8179577589035034,3.8455889225006104
1717002220952710700,6.214710693359375,1.3264548778533936,-1.4409886598587036,3.394707202911377
1717002220962376000,6.2243759765625,1.4700802564620972,-1.3756279945373535,3.067903995513916
1717002220972041500,6.23404150390625,1.5427711009979248,-1.6731106042861938,2.957340717315674
1717002220981706800,6.243706787109375,1.484129786491394,-2.11666202545166,2.990326404571533
1717002220991372300,6.253372314453125,1.1444222927093506,-2.8783886432647705,2.978720188140869
1717002221001037800,6.263037841796875,-0.2739650011062622,-4.408637523651123,2.5920538902282715
1717002221010703000,6.272703125,-1.8872889280319214,-5.891774654388428,2.0746662616729736
1717002221020368600,6.28236865234375,-2.6386311054229736,-6.594859600067139,1.744197964668274
1717002221030034200,6.2920341796875,-3.030184268951416,-6.690762519836426,1.4589322805404663
1717002221039699500,6.301699462890625,-3.2024431228637695,-5.607730388641357,1.2054307460784912
1717002221049365000,6.311364990234375,-3.0314059257507324,-2.5595264434814453,0.7435538172721863
1717002221059030500,6.321030517578125,-2.5836548805236816,1.0201913118362427,0.11010521650314331
1717002221068695800,6.33069580078125,-2.147509813308716,3.8918604850769043,-0.40483900904655457
1717002221078361300,6.340361328125,-1.8616334199905396,5.830079078674316,-0.43477052450180054
1717002221088026600,6.350026611328125,-1.608131766319275,6.632808685302734,-0.04810422286391258
1717002221097692200,6.359692138671875,-1.2097829580307007,6.062811851501465,-0.11957334727048874
1717002221107357700,6.369357666015625,-0.7510367035865784,3.7037196159362793,-1.1574028730392456
1717002221117023000,6.37902294921875,-0.5769452452659607,1.5394114255905151,-1.6223340034484863
1717002221126688500,6.3886884765625,-0.6752916574478149,1.1582427024841309,-1.3241641521453857
1717002221136353800,6.398353759765625,-0.8444963097572327,1.2052780389785767,-0.99736088514328
1717002221146019300,6.408019287109375,-0.9550597071647644,1.0519553422927856,-0.7621846795082092
1717002221155684900,6.417684814453125,-0.930014967918396,0.6114581227302551,-0.5544965863227844
1717002221165350100,6.42735009765625,-0.6514685750007629,-0.24189551174640656,-0.004123218823224306
1717002221175015700,6.437015625,-0.0656660795211792,-1.1001359224319458,0.7191199064254761
1717002221184681200,6.44668115234375,0.7046123147010803,-1.6914360523223877,0.8412894010543823
1717002221194346500,6.456346435546875,1.4639718532562256,-2.075124502182007,0.6568135023117065
1717002221204012000,6.466011962890625,1.9288265705108643,-1.8576629161834717,0.7038487792015076
1717002221213677600,6.475677490234375,1.9783052206039429,-1.0463813543319702,1.0856282711029053
1717002221223342800,6.4853427734375,1.780390739440918,0.014049487188458443,1.5224604606628418
1717002221233008400,6.49500830078125,1.469469428062439,0.9774319529533386,1.69960618019104
1717002221242674000,6.504673828125,1.129762053489685,1.6890690326690674,1.586599349975586
1717002221252339200,6.514339111328125,0.7907418012619019,2.5973989963531494,1.355088233947754
1717002221262004700,6.524004638671875,0.4474456310272217,4.0775580406188965,0.9622371196746826
1717002221271670000,6.533669921875,0.13835690915584564,5.213734149932861,0.2939702570438385
1717002221281335600,6.54333544921875,-0.06261184066534042,5.2748188972473145,-0.4524851143360138
1717002221291001000,6.5530009765625,-0.12858334183692932,4.480717182159424,-1.112200140953064
1717002221300666400,6.562666259765625,-0.12247487902641296,3.0463716983795166,-1.6394376754760742
1717002221310332000,6.572331787109375,-0.14141114056110382,1.3934189081192017,-1.966851830482483
1717002221319997200,6.5819970703125,-0.2654131352901459,0.2376195788383484,-2.0920755863189697
1717002221329662700,6.591662841796875,-0.46454933285713196,-0.2919849753379822,-2.0829126834869385
1717002221339328300,6.601328369140625,-0.6777350306510925,-0.5326588153839111,-2.003502607345581
1717002221348993500,6.61099365234375,-0.9006943106651306,-0.7653915882110596,-1.9094321727752686
1717002221358659000,6.6206591796875,-1.1926792860031128,-1.0146173238754272,-1.8801114559173584
1717002221368324400,6.630324462890625,-1.728468656539917,-0.9651386737823486,-1.916151523590088
1717002221377990000,6.639989990234375,-2.539062976837158,-0.46729815006256104,-2.0884103775024414
1717002221387655400,6.649655517578125,-3.3618743419647217,0.022601349279284477,-2.489737033843994
1717002221397320700,6.65932080078125,-4.0454888343811035,0.19241689145565033,-2.9710845947265625
1717002221406986200,6.668986328125,-4.600138187408447,0.21379654109477997,-3.299720525741577
1717002221416651800,6.67865185546875,-4.996577739715576,0.27121618390083313,-3.4591517448425293
1717002221426317000,6.688317138671875,-5.131575107574463,0.3402419090270996,-3.4255549907684326
1717002221435982600,6.697982666015625,-5.044834613800049,0.4178195297718048,-3.189157247543335
1717002221445648100,6.707648193359375,-4.793776512145996,0.4837910234928131,-2.833033323287964
1717002221455313400,6.7173134765625,-4.397336483001709,0.6719319820404053,-2.468968152999878
1717002221464979000,6.72697900390625,-3.860936403274536,1.5601803064346313,-2.2417330741882324
1717002221474644200,6.736644287109375,-3.270247220993042,2.8961031436920166,-1.9827338457107544
1717002221484309800,6.746309814453125,-2.645961284637451,3.342632532119751,-1.6858620643615723
1717002221493975300,6.755975341796875,-1.9715858697891235,2.318852663040161,-1.4121261835098267
1717002221503640600,6.765640625,-1.3863942623138428,0.3921639323234558,-1.0407310724258423
1717002221513306000,6.77530615234375,-1.090667724609375,-1.3658545017242432,-0.6143596172332764
1717002221522971600,6.7849716796875,-1.184738278388977,-1.9621177911758423,-0.4268295168876648
1717002221532637000,6.794636962890625,-1.6441717147827148,-0.9223793745040894,-0.5795413255691528
1717002221542302500,6.804302490234375,-2.3613064289093018,1.2834664583206177,-0.6345176100730896
1717002221551967700,6.8139677734375,-3.2714688777923584,3.450141668319702,-0.31565532088279724
1717002221561633300,6.82363330078125,-4.229353904724121,4.580285549163818,-0.014507622458040714
1717002221571298800,6.833298828125,-4.790722370147705,4.313345432281494,-0.011453386396169662
1717002221580964000,6.842964111328125,-4.666109561920166,2.91137433052063,-0.35108447074890137
1717002221590629600,6.852629638671875,-3.8823161125183105,1.2077213525772095,-0.9307785034179688
1717002221600295200,6.862295166015625,-2.46637225151062,0.4746283292770386,-1.2746855020523071
1717002221609960400,6.87196044921875,-0.5793886184692383,1.0794434547424316,-1.0260707139968872
1717002221619626000,6.8816259765625,1.4302988052368164,2.1288790702819824,-0.346808522939682
1717002221629291500,6.89129150390625,3.116924524307251,2.7482781410217285,0.35627666115760803
1717002221638956800,6.900956787109375,4.016702651977539,2.7397263050079346,0.7142331600189209
1717002221648622300,6.910622314453125,4.145667552947998,2.3170199394226074,0.8443436026573181
1717002221658287600,6.92028759765625,3.8902571201324463,1.6585266590118408,0.987892746925354
1717002221667953200,6.929953125,3.51947283744812,1.0379058122634888,1.2170368432998657
1717002221677618700,6.93961865234375,3.192669630050659,0.5100574493408203,1.4876421689987183
1717002221687284000,6.949283935546875,3.006361246109009,0.062306419014930725,1.7680209875106812
1717002221696949500,6.958949462890625,2.9764297008514404,-0.288930743932724,2.05267596244812
1717002221706614800,6.96861474609375,3.0717217922210693,-0.6542174220085144,2.333665609359741
1717002221716280300,6.9782802734375,3.1999998092651367,-1.1318999528884888,2.6012167930603027
1717002221725945900,6.98794580078125,3.2708580493927,-1.6303513050079346,2.844944715499878
1717002221735611100,6.997611083984375,3.272690534591675,-2.028700113296509,3.0581305027008057
1717002221745276700,7.007276611328125,3.2262661457061768,-2.269373893737793,3.2022902965545654
1717002221754942200,7.016942138671875,3.13708233833313,-2.2876992225646973,3.2114531993865967
1717002221764607500,7.026607421875,3.0118587017059326,-2.0219807624816895,2.993380546569824
1717002221774273000,7.03627294921875,2.879304885864258,-1.5558279752731323,2.5059244632720947
1717002221783938600,7.0459384765625,2.773017406463623,-1.106244444847107,1.9091267585754395
1717002221793603800,7.055603759765625,2.723538875579834,-0.7262973785400391,1.3502014875411987
1717002221803269400,7.065269287109375,2.703380823135376,-0.3787252902984619,0.8254073858261108
1717002221812934700,7.0749345703125,2.665508270263672,0.02993151545524597,0.2414373755455017
1717002221822600200,7.08460009765625,2.5824332237243652,0.5705313682556152,-0.40606072545051575
1717002221832265700,7.094265625,2.498136281967163,0.8997780084609985,-0.7047650218009949
1717002221841931000,7.103930908203125,2.4040658473968506,0.9401702880859375,-0.7530219554901123
1717002221851596500,7.113596435546875,2.2128705978393555,1.1661838293075562,-0.9075663089752197
1717002221861262000,7.123261962890625,1.822539210319519,3.1905314922332764,-1.9546349048614502
1717002221870927400,7.13292724609375,1.2268867492675781,5.765940189361572,-3.0285043716430664
1717002221880593000,7.142593017578125,0.6190937161445618,6.2271294593811035,-2.865408182144165
1717002221890258200,7.152258056640625,0.10109522193670273,5.663317680358887,-2.081691026687622
1717002221899923700,7.161923828125,-0.2605263590812683,4.508816242218018,-1.0779926776885986
1717002221909589200,7.17158935546875,-0.5170822143554688,2.9535229206085205,0.09361234307289124
1717002221919254500,7.181254638671875,-0.8078454732894897,1.4997063875198364,0.9903361201286316
1717002221928920000,7.190920166015625,-1.1798515319824219,0.10689827054738998,1.563387155532837
1717002221938585300,7.20058544921875,-1.5165046453475952,-1.2577345371246338,1.9256196022033691
1717002221948251000,7.2102509765625,-1.7125866413116455,-2.6780307292938232,2.063671112060547
1717002221957916400,7.21991650390625,-1.654556155204773,-4.23874568939209,1.9689897298812866
1717002221967581700,7.229581787109375,-1.1377030611038208,-5.539926528930664,1.6177525520324707
1717002221977247200,7.239247314453125,-0.21715620160102844,-5.257104396820068,1.3404279947280884
1717002221986912800,7.248912841796875,0.7992936372756958,-3.3927221298217773,1.3300435543060303
1717002221996578000,7.258578125,1.6741032600402832,-2.437356948852539,1.2103174924850464
1717002222006243600,7.26824365234375,2.333207368850708,-2.3982627391815186,0.996444582939148
1717002222015909000,7.2779091796875,2.804170608520508,-2.4874463081359863,0.8076927661895752
1717002222025574400,7.287574462890625,3.0753867626190186,-2.2852559089660645,0.7105680704116821
1717002222035240000,7.297239990234375,3.14013671875,-1.0091196298599243,0.7203416228294373
1717002222044905200,7.3069052734375,3.0167455673217773,1.867436408996582,0.5951179265975952
1717002222054570800,7.31657080078125,2.6673409938812256,4.356104373931885,0.125987246632576
1717002222064236300,7.326236328125,2.153618335723877,5.753112316131592,-0.6296308040618896
1717002222073901600,7.335901611328125,1.5989691019058228,6.373198509216309,-1.570946455001831
1717002222083567000,7.345567138671875,1.0418000221252441,5.809309959411621,-2.073139190673828
1717002222093232400,7.355232421875,0.5427377820014954,4.374429702758789,-1.914929747581482
1717002222102898000,7.36489794921875,0.12308572232723236,2.7104055881500244,-1.4890929460525513
1717002222112563500,7.3745634765625,-0.3130592107772827,1.2926291227340698,-1.1250278949737549
1717002222122228700,7.384228759765625,-0.9141329526901245,0.33352261781692505,-0.9399412274360657
1717002222131894300,7.393894287109375,-1.8341453075408936,-0.28221142292022705,-0.9142856597900391
1717002222141559800,7.403559814453125,-3.1877827644348145,-0.30603447556495667,-0.8568660020828247
1717002222151225000,7.41322509765625,-4.820043087005615,0.5619794726371765,-0.9118422269821167
1717002222160890600,7.422890625,-6.347772121429443,2.107499361038208,-1.2563600540161133
1717002222170556200,7.43255615234375,-7.468752861022949,3.1331119537353516,-1.5678921937942505
1717002222180221400,7.442221435546875,-8.010574340820312,3.519167423248291,-1.8648402690887451
1717002222189887000,7.451886962890625,-7.997136116027832,3.6603493690490723,-2.651000738143921
1717002222199552500,7.461552490234375,-7.57931661605835,2.73789381980896,-3.4127273559570312
1717002222209217800,7.4712177734375,-6.906773567199707,0.6432221531867981,-3.090810775756836
1717002222218883300,7.48088330078125,-6.028909683227539,-1.388455867767334,-2.2325704097747803
1717002222228548600,7.490548583984375,-5.137072563171387,-2.387878179550171,-1.5581187009811401
1717002222238214100,7.500214111328125,-4.347247123718262,-2.6383256912231445,-1.0602781772613525
1717002222247879700,7.509879638671875,-3.6819581985473633,-2.5772409439086914,-0.612527072429657
1717002222257545000,7.519544921875,-3.1511318683624268,-2.379937171936035,-0.16844113171100616
1717002222267210500,7.52921044921875,-2.689331531524658,-2.043360471725464,0.27320143580436707
1717002222276875800,7.538875732421875,-2.237304449081421,-1.5356700420379639,0.7295043468475342
1717002222286541300,7.548541259765625,-1.7681736946105957,-0.8747332692146301,1.2072632312774658
1717002222296206800,7.558206787109375,-1.4254884719848633,0.7562289237976074,1.3923499584197998
1717002222305872100,7.5678720703125,-1.5048985481262207,4.215609550476074,0.7734853625297546
1717002222315537700,7.57753759765625,-1.5421602725982666,6.216745376586914,0.11682453751564026
1717002222325203200,7.587203125,-1.058903694152832,5.910099983215332,-0.6320741772651672
1717002222334868500,7.596868408203125,-0.091932512819767,3.723266839981079,-1.514137625694275
1717002222344534000,7.606533935546875,0.984991192817688,1.3732609748840332,-1.8355196714401245
1717002222354199600,7.616199462890625,1.6618863344192505,0.365286648273468,-1.099372386932373
1717002222363864800,7.62586474609375,2.107804775238037,-0.08185353130102158,0.01969982497394085
1717002222373530400,7.6355302734375,2.457209348678589,-0.8258655071258545,0.7771504521369934
1717002222383195600,7.645195556640625,2.7504160404205322,-1.6951011419296265,1.1223554611206055
1717002222392861200,7.654861083984375,3.0265190601348877,-2.28342342376709,1.3056097030639648
1717002222402526700,7.664526611328125,3.2635278701782227,-2.602285623550415,1.5139086246490479
1717002222412192000,7.67419189453125,3.4333434104919434,-2.747056484222412,1.790622353553772
1717002222421857500,7.683857421875,3.5445175170898438,-2.7305636405944824,2.102154493331909
1717002222431523000,7.693523193359375,3.6153757572174072,-2.524097204208374,2.382533311843872
1717002222441188400,7.703188232421875,3.6685194969177246,-2.0910065174102783,2.5780045986175537
1717002222450854000,7.71285400390625,3.7112789154052734,-1.4929107427597046,2.676961660385132
1717002222460519200,7.722519287109375,3.7082245349884033,-1.0060654878616333,2.734992265701294
1717002222470184700,7.732184814453125,3.617819309234619,-0.8655705451965332,2.8156239986419678
1717002222479850200,7.741850341796875,3.449225425720215,-1.0708152055740356,2.943291187286377
1717002222489515500,7.751515625,3.1963346004486084,-1.401283621788025,3.0257556438446045
1717002222499181000,7.76118115234375,2.8457083702087402,-1.5252856016159058,2.8699893951416016
1717002222508846300,7.770846435546875,2.4266669750213623,-1.317597508430481,2.3727598190307617
1717002222518511900,7.780511962890625,2.020453691482544,-0.9297095537185669,1.7551932334899902
1717002222528177400,7.790177490234375,1.6655514240264893,-0.5803049206733704,1.2860625982284546
1717002222537842700,7.7998427734375,1.3960914611816406,-0.17470231652259827,1.0447015762329102
1717002222547508200,7.80950830078125,1.1871815919876099,0.7525638341903687,0.8962656259536743
1717002222557173800,7.819173828125,1.0240854024887085,1.505814790725708,0.8095253109931946
1717002222566839000,7.828839111328125,0.8530482053756714,2.150258779525757,0.5859552621841431
1717002222576504600,7.838504638671875,0.7131641507148743,2.032365083694458,-0.5270084738731384
1717002222586170000,7.848170166015625,0.6007682681083679,1.0434035062789917,-2.4329283237457275
1717002222595835400,7.85783544921875,0.45477578043937683,0.33535513281822205,-3.571547508239746
1717002222605501000,7.8675009765625,0.32100024819374084,-0.418430358171463,-4.1457438468933105
1717002222615166200,7.877166259765625,0.10109522193670273,-0.7085828185081482,-2.7939391136169434
1717002222624831700,7.886831787109375,-0.20738264918327332,1.0287431478500366,0.7099572420120239
1717002222634497300,7.896497314453125,-0.17439688742160797,2.240053176879883,1.272623896598816
1717002222644162600,7.90616259765625,-0.05894676223397255,1.7379368543624878,0.7136223316192627
1717002222653828000,7.915828125,-0.003359660040587187,0.41415444016456604,-0.010842538438737392
1717002222663493600,7.92549365234375,-0.08032641559839249,-0.7360709309577942,-0.6803311109542847
1717002222673159000,7.935158935546875,-0.26663482189178467,-1.7843612432479858,-1.3418787717819214
1717002222682824400,7.944824462890625,-0.37536564469337463,-1.5582714080810547,-1.1305255889892578
1717002222692489700,7.95448974609375,-0.25258535146713257,-1.0854755640029907,-0.08047912269830704
1717002222702155300,7.9641552734375,0.006413896102458239,-2.556472063064575,0.3477247953414917
1717002222711820800,7.97382080078125,0.3668137788772583,-3.929656744003296,1.2823975086212158
1717002222721486000,7.983486083984375,0.8261709213256836,-4.962676048278809,2.2683048248291016
1717002222731151600,7.993151611328125,1.4951250553131104,-5.838630676269531,2.830895185470581
1717002222740817200,8.002817138671874,2.1841607093811035,-5.674313068389893,3.1186044216156006
1717002222750482400,8.012482421875,2.350922107696533,-3.461747884750366,2.3202269077301025
1717002222760148000,8.02214794921875,2.196377754211426,-0.5766398310661316,1.0862390995025635
1717002222769813500,8.0318134765625,2.052828550338745,1.9676153659820557,0.21333840489387512
1717002222779478800,8.041478759765624,2.017399311065674,4.559516429901123,0.16935740411281586
1717002222789144300,8.051144287109375,2.0516068935394287,6.1458868980407715,0.8736643195152283
1717002222798809600,8.0608095703125,2.165224552154541,5.098283767700195,1.5181845426559448
1717002222808475100,8.07047509765625,2.379631757736206,1.4239612817764282,-0.07986827939748764
1717002222818140700,8.080140625,2.570216178894043,-1.0366077423095703,-1.933866024017334
1717002222827806000,8.089805908203125,2.6991050243377686,-2.0708484649658203,-2.5404374599456787
1717002222837471500,8.099471435546874,2.6038126945495605,-1.3096565008163452,-2.9008371829986572
1717002222847137000,8.109136962890625,2.4016222953796387,-0.9040539264678955,-3.0022380352020264
1717002222856802300,8.11880224609375,2.121854305267334,-0.4953971207141876,-2.8660190105438232
1717002222866467800,8.1284677734375,1.6075209379196167,1.1564102172851562,-2.683375597000122
1717002222876133000,8.138133056640624,0.8939749598503113,2.240053176879883,-2.226461887359619
1717002222885798700,8.147798583984375,-0.07238540053367615,3.046982526779175,-2.0658090114593506
1717002222895464200,8.157464111328125,-1.1224318742752075,3.316366195678711,-1.9155406951904297
1717002222905129500,8.16712939453125,-1.9312700033187866,2.9077093601226807,-1.5342955589294434
1717002222914795000,8.176794921875,-2.266014337539673,1.9712804555892944,-1.1659547090530396
1717002222924460500,8.18646044921875,-2.356419563293457,0.6743753552436829,-0.8929060101509094
1717002222934125800,8.196125732421875,-2.3808536529541016,-0.5241069197654724,-0.7805100679397583
1717002222943791400,8.205791259765626,-2.3979573249816895,-1.808184266090393,-0.8929060101509094
1717002222953457000,8.215456787109375,-2.300832509994507,-3.325528860092163,-1.6363834142684937
1717002222963122200,8.2251220703125,-2.043665885925293,-3.1911423206329346,-2.8819010257720947
1717002222972787700,8.23478759765625,-1.9691424369812012,-2.5228755474090576,-3.533064126968384
1717002222982453000,8.244452880859376,-2.0650455951690674,-1.9358513355255127,-3.7401413917541504
1717002222992118500,8.254118408203125,-2.2311959266662598,-1.5649906396865845,-3.5892622470855713
1717002223001784000,8.2637841796875,-2.3814644813537598,-1.6627262830734253,-3.2343599796295166
1717002223011449300,8.273449462890625,-2.419947862625122,-2.0916173458099365,-2.8409743309020996
1717002223021115000,8.283114990234376,-2.2592949867248535,-2.6621487140655518,-2.451253652572632
1717002223030780400,8.292780517578125,-1.7718387842178345,-3.2839913368225098,-1.9674626588821411
1717002223040445700,8.30244580078125,-0.7290462255477905,-4.344421863555908,-1.135412335395813
1717002223050111200,8.312111328125,0.8817580342292786,-5.784265518188477,0.06245913356542587
1717002223059776500,8.321776611328126,2.5659403800964355,-6.6406731605529785,1.2475792169570923
1717002223069442000,8.331442138671875,3.5084776878356934,-4.4129133224487305,1.0874608755111694
1717002223079107600,8.341107666015626,3.5958287715911865,-1.508792757987976,0.17180079221725464
1717002223088772900,8.35077294921875,3.1938912868499756,-0.21562908589839935,-0.4524851143360138
1717002223098438400,8.3604384765625,2.344813585281372,-0.2602209448814392,-0.6094728708267212
1717002223108104000,8.37010400390625,1.448089838027954,-0.7452336549758911,-0.39323291182518005
1717002223117769200,8.379769287109376,0.9006943106651306,-1.2473500967025757,0.1241547018289566
1717002223127434800,8.389434814453125,0.7980719208717346,-1.9505116939544678,0.8382351398468018
1717002223137100000,8.39910009765625,1.0283613204956055,-2.520432233810425,1.480922818183899
1717002223146765600,8.408765625,1.3533320426940918,-2.96024227142334,1.9494426250457764
1717002223156431000,8.41843115234375,1.635619878768921,-3.435481309890747,2.310453414916992
1717002223166096400,8.428096435546875,1.8371994495391846,-3.929656744003296,2.6549713611602783
1717002223175762000,8.437761962890624,2.0051825046539307,-4.280282974243164,2.94878888130188
1717002223185427500,8.447427490234375,2.177441358566284,-4.3682451248168945,3.117382526397705
1717002223195092700,8.4570927734375,2.295334815979004,-4.181325912475586,3.1418166160583496
1717002223204758300,8.46675830078125,2.255018949508667,-3.759230375289917,3.0611846446990967
1717002223214423800,8.476423828125,2.080927610397339,-3.278493642807007,2.9310741424560547
1717002223224089000,8.486089111328125,1.793829321861267,-2.7971458435058594,2.67757248878479
1717002223233754600,8.495754638671874,1.4040324687957764,-2.333512783050537,2.350769281387329
1717002223243420000,8.505419921875,0.9654440879821777,-1.9902167320251465,2.1064305305480957
1717002223253085400,8.51508544921875,0.7046123147010803,-1.8698798418045044,1.9243979454040527
1717002223262751000,8.5247509765625,0.4840964674949646,-1.9444031715393066,1.7722970247268677
1717002223272416300,8.534416259765624,0.23975755274295807,-2.017704963684082,1.6220285892486572
1717002223282081800,8.544081787109375,0.016187451779842377,-2.098336696624756,1.3679161071777344
1717002223291747300,8.553747314453124,-0.1957765519618988,-2.2388315200805664,1.0184351205825806
1717002223301412600,8.56341259765625,-0.35948359966278076,-2.329847812652588,0.6635328531265259
1717002223311078100,8.573078125,-0.47982051968574524,-2.1203272342681885,0.15591876208782196
1717002223320743400,8.582743408203125,-0.5500679612159729,-1.2400199174880981,-0.7499676942825317
1717002223330409000,8.592408935546874,-0.5335750579833984,-0.4844018816947937,-1.5942349433898926
1717002223340074500,8.602074462890625,-0.4199574887752533,-0.37200596928596497,-2.040764331817627
1717002223349739800,8.61173974609375,-0.16095824539661407,-0.5839699506759644,-2.2991526126861572
1717002223359405300,8.6214052734375,0.33321717381477356,-0.8631271719932556,-2.7603423595428467
1717002223369070800,8.63107080078125,0.6655181050300598,-2.5247080326080322,-3.232527256011963
1717002223378736000,8.640736083984375,0.4443913698196411,-4.57356595993042,-2.9771931171417236
1717002223388401700,8.650401611328125,0.0656660795211792,-4.838674068450928,-2.1757614612579346
1717002223398067200,8.660067138671875,-0.15240639448165894,-3.7121951580047607,-1.2539167404174805
1717002223407732500,8.669732421875,0.047951508313417435,-1.9444031715393066,-0.5514423847198486
1717002223417398000,8.67939794921875,0.7388197779655457,-0.06780404597520828,-0.15500248968601227
1717002223427063600,8.6890634765625,1.807878851890564,1.1967260837554932,0.35566580295562744
1717002223436728800,8.698728759765626,2.341759204864502,1.5601803064346313,0.8785510659217834
1717002223446394400,8.708394287109375,2.1902692317962646,1.1105966567993164,1.2481900453567505
1717002223456059600,8.7180595703125,1.802381157875061,0.3512371778488159,1.5255147218704224
1717002223465725200,8.72772509765625,1.2507097721099854,-0.183865025639534,1.6293586492538452
1717002223475390700,8.737390625,0.564117431640625,-0.5143333673477173,1.6281369924545288
1717002223485056000,8.747055908203125,-0.2623589038848877,-0.8002098798751831,1.6623444557189941
1717002223494721500,8.756721435546876,-0.8353336453437805,-1.0885298252105713,1.758858323097229
1717002223504387000,8.766386962890625,-1.244066834449768,-0.81425940990448,1.7606909275054932
1717002223514052400,8.77605224609375,-1.358295202255249,-0.034818295389413834,1.7277051210403442
1717002223523718000,8.7857177734375,-1.2984322309494019,0.6456655263900757,1.6873892545700073
1717002223533383200,8.795383056640626,-1.110825777053833,1.0641722679138184,1.6037031412124634
1717002223543048700,8.805048583984375,-0.7809682488441467,1.4031925201416016,1.4125078916549683
1717002223552714200,8.81471435546875,-0.36253786087036133,1.5748405456542969,1.0294303894042969
1717002223562379500,8.824379638671875,0.033291175961494446,1.428848147392273,0.47355934977531433
1717002223572045000,8.834045166015626,0.30878329277038574,1.0330190658569336,-0.1391204595565796
1717002223581710600,8.843710693359375,0.4614951014518738,0.6725428104400635,-0.6693359017372131
1717002223591376000,8.8533759765625,0.6875085830688477,0.5430431962013245,-1.0816577672958374
1717002223601041400,8.86304150390625,1.2549856901168823,0.5528167486190796,-1.3925790786743164
1717002223610707000,8.87270703125,1.5586531162261963,0.5509842038154602,-1.7060199975967407
1717002223620372200,8.882372314453125,1.3569971323013306,0.4477510452270508,-2.0108327865600586
1717002223630037800,8.892037841796874,0.777303159236908,0.22723518311977386,-2.271664619445801
1717002223639703300,8.901703369140625,0.013133215717971325,0.23334364593029022,-2.4561405181884766
1717002223649368600,8.91136865234375,-0.7516475319862366,0.6420004963874817,-2.5948028564453125
1717002223659034000,8.9210341796875,-1.4517548084259033,1.2639193534851074,-2.7621748447418213
1717002223668699400,8.930699462890624,-2.05771541595459,1.941348910331726,-2.9704737663269043
1717002223678365000,8.940364990234375,-2.43399715423584,2.4416327476501465,-3.1262400150299072
1717002223688030500,8.950030517578124,-2.5030229091644287,2.448352098464966,-3.1219639778137207
1717002223697695700,8.95969580078125,-2.2592949867248535,2.1239922046661377,-2.9472615718841553
1717002223707361300,8.969361328125,-1.802381157875061,1.6951775550842285,-2.6852080821990967
1717002223717026800,8.97902685546875,-1.2587270736694336,1.2168841361999512,-2.4127702713012695
1717002223726692000,8.988692138671874,-0.7131641507148743,0.7366818189620972,-2.2130231857299805
1717002223736357600,8.998357666015625,-0.20310671627521515,0.3665083646774292,-2.1342239379882812
1717002223746023000,9.00802294921875,0.23425991833209991,0.2223484069108963,-2.159879446029663
1717002223755688400,9.0176884765625,0.5005893111228943,0.3261924386024475,-2.2368462085723877
1717002223765354000,9.02735400390625,0.5592306852340698,0.6395570635795593,-2.335803508758545
1717002223775019300,9.037019287109375,0.569004237651825,1.0641722679138184,-2.446367025375366
1717002223784684800,9.046684814453124,0.6447492837905884,1.4117443561553955,-2.564871311187744
1717002223794350300,9.056350341796875,0.7858549952507019,1.412966012954712,-2.7285783290863037
1717002223804015600,9.066015625,0.9898779988288879,0.9297095537185669,-2.9387097358703613
1717002223813681200,9.07568115234375,1.2226108312606812,0.018936265259981155,-3.108525276184082
1717002223823346700,9.0853466796875,1.300188422203064,-0.8087617754936218,-3.016287326812744
1717002223833012000,9.095011962890625,1.0784507989883423,-0.9608627557754517,-2.2771623134613037
1717002223842677500,9.104677490234375,0.6276455521583557,-0.14843589067459106,-0.8629744648933411
1717002223852343000,9.114343017578125,0.14629791676998138,1.1612969636917114,0.7594358325004578
1717002223862008300,9.12400830078125,-0.20738264918327332,2.038473606109619,2.0538976192474365
1717002223871673900,9.133673828125,-0.3912476599216461,2.330458641052246,2.8400580883026123
1717002223881339100,9.143339111328125,-0.39918869733810425,2.3726069927215576,3.157698631286621
1717002223891004700,9.153004638671876,-0.2360924631357193,2.3958191871643066,3.1033332347869873
1717002223900670200,9.162670166015625,0.030847785994410515,2.246161699295044,2.8229541778564453
1717002223910335500,9.17233544921875,0.36253786087036133,1.6322602033615112,2.509589672088623
1717002223920001000,9.1820009765625,0.6331431865692139,0.5320479869842529,2.3061773777008057
1717002223929666600,9.19166650390625,0.7009472250938416,-0.5943543910980225,2.3312222957611084
1717002223939331800,9.201331787109375,0.540905237197876,-1.3860124349594116,2.5572357177734375
1717002223948997400,9.210997314453126,0.30695074796676636,-1.7274760007858276,2.8461663722991943
1717002223958662700,9.22066259765625,0.22937314212322235,-1.721367597579956,3.1161608695983887
1717002223968328200,9.230328125,0.20677179098129272,-1.6401249170303345,3.304912805557251
1717002223977993700,9.23999365234375,0.13469181954860687,-1.5430002212524414,3.40020489692688
1717002223987659000,9.249658935546876,-0.010078979656100273,-1.2546802759170532,3.4631221294403076
1717002223997324500,9.259324462890625,-0.14874130487442017,-0.7153021693229675,3.5003838539123535
1717002224006990000,9.268989990234376,-0.2611372172832489,-0.1056765764951706,3.420362949371338
1717002224016655400,9.2786552734375,-0.4327852725982666,0.38849884271621704,3.2175614833831787
1717002224026321000,9.28832080078125,-0.6374191045761108,0.7177455425262451,2.983607053756714
1717002224035986200,9.297986083984375,-0.8359444737434387,0.8399149775505066,2.746598243713379
1717002224045651700,9.307651611328126,-0.961778998374939,0.6939224600791931,2.5883889198303223
1717002224055317200,9.317317138671875,-1.0027058124542236,0.30786702036857605,2.5279150009155273
1717002224064982500,9.326982421875,-1.0595145225524902,0.012216945178806782,2.4503374099731445
1717002224074648000,9.33664794921875,-1.1774080991744995,0.34635040163993835,2.0655035972595215
1717002224084313600,9.346313720703124,-1.26972234249115,1.3610440492630005,1.2878950834274292
1717002224093979000,9.355978759765625,-1.2581162452697754,2.280369281768799,0.5719057321548462
1717002224103644400,9.36564453125,-1.1267077922821045,2.645045042037964,0.23227466642856598
1717002224113310000,9.37531005859375,-0.9080244302749634,2.604729175567627,0.2536543309688568
1717002224122975200,9.384975341796874,-0.6392516493797302,2.5509746074676514,0.39170581102371216
1717002224132640800,9.394640869140625,-0.37597647309303284,4.0427398681640625,-0.4249969720840454
1717002224142306300,9.404306396484374,-0.12858334183692932,6.3554840087890625,-1.2099356651306152
1717002224151971600,9.4139716796875,0.25747212767601013,3.5698678493499756,0.409420371055603
1717002224161637000,9.42363720703125,0.5079194903373718,1.0696699619293213,0.8162446618080139
1717002224171302700,9.433302734375,0.8860339522361755,-0.3811686933040619,0.8932114243507385
1717002224180968000,9.442968017578124,1.3673815727233887,-1.037218689918518,0.7600467205047607
1717002224190633500,9.452633544921875,1.8793479204177856,0.0916270911693573,-0.14706148207187653
1717002224200298800,9.462298828125,2.385740280151367,1.1112074851989746,-0.8269344568252563
1717002224209964300,9.47196435546875,2.7314798831939697,0.39888325333595276,-0.5654918551445007
1717002224219629800,9.4816298828125,2.798673152923584,-0.7061394453048706,0.00015271181473508477
1717002224229295000,9.491295166015625,2.579378843307495,-1.475196123123169,0.5267030596733093
1717002224238960600,9.500960693359374,2.0882577896118164,-1.3634110689163208,0.7337802648544312
1717002224248626200,9.510626220703125,1.4254120588302612,-0.5357130169868469,0.668419599533081
1717002224258291500,9.52029150390625,0.7229377031326294,-0.2632751762866974,0.7881456613540649
1717002224267957000,9.52995703125,0.23914669454097748,-0.5375455617904663,0.9891144037246704
1717002224277622300,9.539622314453124,0.15057384967803955,-0.4960079789161682,0.9384140968322754
1717002224287287800,9.549287841796875,0.2593046724796295,-0.06169557198882103,0.8510629534721375
1717002224296953300,9.558953369140625,0.29229041934013367,0.24189551174640656,0.9298622608184814
1717002224306618600,9.56861865234375,0.22754059731960297,0.517998456954956,0.987892746925354
1717002224316284200,9.5782841796875,0.1835595965385437,0.9278770089149475,0.7924215793609619
1717002224325949700,9.58794970703125,0.24708771705627441,1.279801368713379,0.3184041380882263
1717002224335615000,9.597614990234375,0.38941511511802673,1.3665416240692139,-0.30282753705978394
1717002224345280500,9.607280517578126,0.5225798487663269,1.1246461868286133,-0.8690829277038574
1717002224354946000,9.616946044921875,0.6160394549369812,0.786160409450531,-1.274074673652649
1717002224364611300,9.626611328125,0.6587987542152405,0.6126797795295715,-1.524522066116333
1717002224374276900,9.63627685546875,0.6252021789550781,0.7360709309577942,-1.6632606983184814
1717002224383942400,9.6459423828125,0.4596625566482544,1.2168841361999512,-1.7292321920394897
1717002224393607700,9.655607666015625,0.09804098308086395,1.8937028646469116,-1.6449353694915771
1717002224403273200,9.665273193359376,-0.531742513179779,2.422696590423584,-1.3021736145019531
1717002224412938500,9.6749384765625,-1.414493203163147,2.760495185852051,-0.8660287261009216
1717002224422604000,9.68460400390625,-2.402233123779297,2.7659926414489746,-0.5282301902770996
1717002224432269600,9.69426953125,-3.3875298500061035,2.310300588607788,-0.2918322682380676
1717002224441934800,9.703934814453126,-4.270280361175537,1.6536399126052856,-0.12201674282550812
1717002224451600400,9.713600341796875,-4.893344879150391,1.2211600542068481,-0.1751604527235031
1717002224461266000,9.723265869140626,-5.051554203033447,1.881485939025879,-1.120751976966858
1717002224470931200,9.73293115234375,-4.825540542602539,2.4379677772521973,-2.1256721019744873
1717002224480596700,9.7425966796875,-4.333197593688965,1.8393374681472778,-2.521501064300537
1717002224490262000,9.752261962890625,-3.5817792415618896,-0.6420004963874817,-2.1580469608306885
1717002224499927600,9.761927490234376,-2.78706693649292,-3.1416637897491455,-1.861175298690796
1717002224509593000,9.771593017578125,-2.0589370727539062,-3.797102928161621,-2.3321385383605957
1717002224519258400,9.78125830078125,-1.339358925819397,-2.830131769180298,-3.267956495285034
1717002224528924000,9.790923828125,-0.8292251825332642,-1.8711014986038208,-3.5721583366394043
1717002224538589400,9.80058935546875,-0.4712686538696289,-1.0970816612243652,-3.3320953845977783
1717002224548254700,9.810254638671875,-0.11025793105363846,-0.6071822047233582,-2.773170232772827
1717002224557920300,9.819920166015624,0.30572906136512756,-0.5143333673477173,-2.159268617630005
1717002224567585800,9.829585693359375,0.7656970620155334,-0.648108959197998,-1.754276990890503
1717002224577251000,9.8392509765625,1.235438585281372,-0.833195686340332,-1.6217231750488281
1717002224586916600,9.84891650390625,1.6576104164123535,-0.9846857786178589,-1.676088571548462
1717002224596582100,9.85858203125,2.024118661880493,-1.0824213027954102,-1.7573312520980835
1717002224606247400,9.868247314453125,2.2965567111968994,-1.1880979537963867,-1.6699800491333008
1717002224615913000,9.877912841796874,2.3228230476379395,-1.346307396888733,-1.223985195159912
1717002224625578500,9.88757861328125,1.8591899871826172,-1.2552911043167114,-0.5471664071083069
1717002224635243800,9.897243896484374,0.9691091775894165,-0.8399149775505066,0.09239064902067184
1717002224644909300,9.906909423828125,-0.058335911482572556,-0.3970507085323334,0.5260922312736511
1717002224654574600,9.91657470703125,-0.9159654378890991,-0.07146912813186646,0.7881456613540649
1717002224664240000,9.926240234375,-1.4157148599624634,0.13621893525123596,1.011104941368103
1717002224673905700,9.93590576171875,-1.507341980934143,0.16615045070648193,1.306220531463623
1717002224683571000,9.945571044921875,-1.3314179182052612,-0.07330167293548584,1.6623444557189941
1717002224693236500,9.955236572265624,-1.0979979038238525,-0.5167768001556396,2.0129706859588623
1717002224702902000,9.964902099609375,-0.8634325861930847,-1.0421054363250732,2.3434391021728516
1717002224712567300,9.9745673828125,-0.6600204706192017,-1.4971866607666016,2.6238181591033936
1717002224722232800,9.98423291015625,-0.5299099683761597,-1.7183133363723755,2.784470796585083
1717002224731898000,9.993898193359374,-0.5433486104011536,-1.3591351509094238,2.5749502182006836
1717002224741563600,10.003563720703125,-0.5824428796768188,-0.8625163435935974,2.220658779144287
1717002224751229200,10.013229248046875,-0.45355409383773804,-0.7464553713798523,2.101543664932251
1717002224760894500,10.02289453125,-0.23120568692684174,-0.7763868570327759,2.0936026573181152
1717002224770560000,10.03256005859375,-0.03634541109204292,-0.34940463304519653,1.8132237195968628
1717002224780225500,10.0422255859375,0.06200099736452103,0.5760289430618286,1.2402490377426147
1717002224789890800,10.051890869140625,0.06749862432479858,1.5546826124191284,0.6067240238189697
1717002224799556400,10.061556396484375,0.1175880953669548,2.0965042114257812,0.2286095917224884
1717002224809222000,10.071221923828125,0.2867927849292755,1.9474574327468872,0.27381229400634766
1717002224818887200,10.08088720703125,0.3533751368522644,0.9046648144721985,0.5541911721229553
1717002224828552700,10.090552734375,0.305118203163147,-0.7617265582084656,0.9243646264076233
1717002224838218200,10.10021826171875,0.16401249170303345,-2.5576937198638916,1.2170368432998657
1717002224847883500,10.109883544921875,0.03145863488316536,-3.8453598022460938,1.2659045457839966
1717002224857549000,10.119549072265626,-0.037567105144262314,-4.646867752075195,1.1510653495788574
1717002224867214600,10.129214599609375,-0.05467082932591438,-5.420811176300049,1.0453124046325684
1717002224876880000,10.1388798828125,-0.042453885078430176,-6.056703090667725,0.9335273504257202
1717002224886545400,10.14854541015625,-0.016798298805952072,-6.373733043670654,0.775317907333374
1717002224896210700,10.158210693359376,-0.04062134400010109,-6.44703483581543,0.6109999418258667
1717002224905876200,10.167876220703125,-0.15423893928527832,-6.46658182144165,0.40453359484672546
1717002224915541800,10.177541748046876,-0.23975755274295807,-6.571647644042969,0.11682453751564026
1717002224925207000,10.18720703125,-0.11636640131473541,-6.505675792694092,-0.3968980014324188
1717002224934872600,10.19687255859375,0.7052231431007385,-5.340790271759033,-2.0981838703155518
1717002224944538000,10.2065380859375,1.8402537107467651,-3.334080696105957,-3.869641065597534
1717002224954203400,10.216203369140626,2.4523227214813232,-1.6248537302017212,-4.511717796325684
1717002224963869000,10.225868896484375,2.408341646194458,-2.0341978073120117,-4.233705997467041
1717002224973534500,10.235534423828126,1.6252354383468628,-4.979168891906738,-2.6852080821990967
1717002224983199700,10.24519970703125,0.61481773853302,-5.048805236816406,-0.9845330715179443
1717002224992865300,10.254865234375,0.00519220158457756,-2.127657413482666,0.22738789021968842
1717002225002530600,10.264530517578125,-0.17928366363048553,0.9627716541290283,1.0214893817901611
1717002225012196000,10.274196044921876,-0.22509720921516418,2.966350555419922,1.5206278562545776
1717002225021861600,10.283861572265625,-0.14751961827278137,3.2955973148345947,2.1552982330322266
1717002225031527000,10.29352685546875,0.17500774562358856,1.9718912839889526,3.042248487472534
1717002225041192400,10.3031923828125,0.17928366363048553,1.2364312410354614,3.3898205757141113
1717002225050858000,10.31285791015625,-0.12552911043167114,1.2895748615264893,3.319573163986206
1717002225060523300,10.322523193359375,-0.4297310411930084,1.543076515197754,3.201068639755249
1717002225070188800,10.332188720703124,-0.6404733657836914,1.8405591249465942,3.026977300643921
1717002225079854300,10.341854248046875,-0.7443174123764038,2.0806221961975098,2.673907518386841
1717002225089519600,10.35151953125,-0.6551336646080017,2.416588068008423,1.8688108921051025
1717002225099185200,10.36118505859375,-0.381474107503891,2.4770619869232178,0.5963396430015564
1717002225108850700,10.3708505859375,-0.1298050433397293,1.6927341222763062,-0.5722111463546753
1717002225118516000,10.380515869140625,0.010078979656100273,0.41110020875930786,-1.3846380710601807
1717002225128181500,10.390181396484374,0.10109522193670273,-0.790436327457428,-1.9014911651611328
1717002225137847000,10.399846923828125,0.21226942539215088,-1.4959648847579956,-2.2337920665740967
1717002225147512300,10.40951220703125,0.34421244263648987,-1.5057384967803955,-2.4567513465881348
1717002225157177900,10.419177734375,0.47615543007850647,-0.8026533126831055,-2.6125173568725586
1717002225166843100,10.428843017578124,0.5445703268051147,0.5583143830299377,-2.711474657058716
1717002225176508700,10.4385087890625,0.4211791753768921,2.2889211177825928,-2.7743918895721436
1717002225186174200,10.44817431640625,0.04489727318286896,3.9065208435058594,-2.833033323287964
1717002225195839500,10.457839599609375,-0.4828747510910034,4.977947235107422,-2.85074782371521
1717002225205505000,10.467505126953125,-1.0216420888900757,5.418978691101074,-2.755455732345581
1717002225215170600,10.477170654296875,-1.484129786491394,5.451353549957275,-2.5288312435150146
1717002225224835800,10.4868359375,-1.8304802179336548,5.186856746673584,-2.2270727157592773
1717002225234501400,10.49650146484375,-2.0192320346832275,4.646256923675537,-1.9344769716262817
1717002225244167000,10.5061669921875,-2.0485527515411377,3.942560911178589,-1.726788878440857
1717002225253832200,10.515832275390625,-1.9593689441680908,3.262000799179077,-1.6272207498550415
1717002225263497700,10.525497802734375,-1.7510700225830078,2.676809072494507,-1.6217231750488281
1717002225273163000,10.5351630859375,-1.3808965682983398,2.1007800102233887,-1.7609963417053223
1717002225282828500,10.54482861328125,-0.8683193922042847,1.3573789596557617,-2.0713067054748535
1717002225292494000,10.554494140625,-0.33077380061149597,0.4159869849681854,-2.4567513465881348
1717002225302159400,10.564159423828125,0.14202198386192322,-0.5497625470161438,-2.7945499420166016
1717002225311825000,10.573824951171876,0.5464028716087341,-1.365243673324585,-3.009567975997925
1717002225321490400,10.583490478515625,0.9471186995506287,-1.9841082096099854,-3.0407214164733887
1717002225331155700,10.59315576171875,1.4364073276519775,-2.5198214054107666,-2.8843443393707275
1717002225340821200,10.6028212890625,1.8274259567260742,-2.3286261558532715,-2.636951208114624
1717002225350486800,10.61248681640625,1.9373784065246582,-1.1606098413467407,-2.1256721019744873
1717002225360152000,10.622152099609375,1.700980544090271,0.13927318155765533,-1.1054807901382446
1717002225369817600,10.631817626953126,1.129762053489685,1.0837193727493286,0.07895200699567795
1717002225379483100,10.641483154296875,0.41262730956077576,1.6237083673477173,0.9976662993431091
1717002225389148400,10.6511484375,-0.06688777357339859,1.728163242340088,1.5023025274276733
1717002225398814000,10.66081396484375,-0.36009445786476135,1.4862676858901978,1.721596598625183
1717002225408479500,10.6704794921875,-0.5225798487663269,1.1564102172851562,1.8028392791748047
1717002225418144800,10.680144775390625,-0.531742513179779,0.7611156702041626,1.8651458024978638
1717002225427810300,10.689810302734376,-0.3246653079986572,0.10873081535100937,1.9592162370681763
1717002225437475600,10.6994755859375,0.06872031837701797,-0.8167027831077576,2.0508432388305664
1717002225447141000,10.70914111328125,0.4614951014518738,-1.839948296546936,2.1198689937591553
1717002225456806700,10.718806640625,0.6801784038543701,-2.6786415576934814,2.208441972732544
1717002225466472000,10.728471923828126,0.717440128326416,-3.267498254776001,2.29823637008667
1717002225476137500,10.738137451171875,0.6019899845123291,-3.6138486862182617,2.336108922958374
1717002225485803000,10.747802978515624,0.4077405333518982,-3.7928268909454346,2.27197003364563
1717002225495468300,10.75746826171875,0.19821994006633759,-3.9724161624908447,2.124145030975342
1717002225505133800,10.7671337890625,0.016798298805952072,-4.0787034034729,1.9476101398468018
1717002225514799400,10.77679931640625,-0.10292776674032211,-4.016396999359131,1.7930657863616943
1717002225524464600,10.786464599609374,-0.18966807425022125,-3.7751123905181885,1.7234292030334473
1717002225534130200,10.796130126953125,-0.32038938999176025,-3.3707315921783447,1.7423654794692993
1717002225543795500,10.80579541015625,-0.4957025647163391,-2.857008934020996,1.80100679397583
1717002225553461000,10.8154609375,-0.6319214701652527,-2.4587366580963135,1.8077261447906494
1717002225563126500,10.82512646484375,-0.7614210844039917,-2.161864757537842,1.763134241104126
1717002225572791800,10.834791748046875,-0.8909206986427307,-1.9431815147399902,1.7032712697982788
1717002225582457300,10.844457275390624,-0.9941539168357849,-1.8869835138320923,1.6427973508834839
1717002225592123000,10.854122802734375,-1.0943328142166138,-2.089784860610962,1.6214176416397095
1717002225601788200,10.8637880859375,-1.1884033679962158,-2.445908784866333,1.5749932527542114
1717002225611453700,10.87345361328125,-1.2666682004928589,-2.8148605823516846,1.4253357648849487
1717002225621119200,10.883119140625,-1.3326396942138672,-3.1123430728912354,1.195046305656433
1717002225630784500,10.892784423828125,-1.3796749114990234,-3.1160082817077637,0.7905890941619873
1717002225640450000,10.902449951171874,-1.2024527788162231,-1.7361042499542236,-1.2838482856750488
1717002225650115600,10.912115478515625,-0.7455390691757202,-0.017714571207761765,-3.7774031162261963
1717002225659780900,10.92178076171875,-0.42789849638938904,0.24494975805282593,-4.796372890472412
1717002225669446400,10.9314462890625,-0.3313846290111542,-3.1447179317474365,-4.481175422668457
1717002225679112000,10.94111181640625,-0.15546062588691711,-8.031038284301758,-3.7401413917541504
1717002225688777200,10.950777099609375,0.222042977809906,-9.966278076171875,-3.299109697341919
1717002225698442800,10.96044287109375,0.5708367824554443,-8.388994216918945,-2.8904528617858887
1717002225708108300,10.9701083984375,0.698503851890564,-4.6877946853637695,-2.2246294021606445
1717002225717773600,10.979773681640625,0.8322793841362,-0.7525638341903687,-1.5404040813446045
1717002225727439000,10.989439208984376,1.1352596282958984,1.882096767425537,-0.9625425934791565
1717002225737104400,10.9991044921875,1.4835189580917358,2.8264665603637695,-0.2808370292186737
1717002225746770000,11.00877001953125,1.572091817855835,2.616335153579712,0.6226060390472412
1717002225756435500,11.018435546875,1.342336893081665,2.113607883453369,1.485198736190796
1717002225766100700,11.028100830078126,0.976439356803894,1.8228446245193481,2.139416217803955
1717002225775766300,11.037766357421875,0.6276455521583557,1.844224214553833,2.526693344116211
1717002225785431800,11.047431884765626,0.34909921884536743,1.8753774166107178,2.6702425479888916
1717002225795097000,11.05709716796875,0.11575555801391602,1.6145457029342651,2.7282729148864746
1717002225804762600,11.0667626953125,-0.10842538625001907,1.072113275527954,2.816234827041626
1717002225814428200,11.07642822265625,-0.29412296414375305,0.5803049206733704,2.877319574356079
1717002225824093400,11.086093505859376,-0.3765873312950134,0.49417543411254883,2.7936336994171143
1717002225833759000,11.095759033203125,-0.4083513915538788,0.7519529461860657,2.4900424480438232
1717002225843424300,11.10542431640625,-0.4181249439716339,0.9859838485717773,1.9329497814178467
1717002225853089800,11.11508984375,-0.33688226342201233,1.0708916187286377,1.1364049911499023
1717002225862755300,11.12475537109375,-0.12308572232723236,1.0934929847717285,0.20356485247612
1717002225872420600,11.134420654296875,0.16523417830467224,1.0098068714141846,-0.6351284384727478
1717002225882086100,11.144086181640626,0.4450022280216217,0.7977665066719055,-1.2068815231323242
1717002225891751700,11.153751708984375,0.7033905982971191,0.4966188073158264,-1.4774868488311768
1717002225901417000,11.1634169921875,0.9996515512466431,0.16370706260204315,-1.5214678049087524
1717002225911082500,11.17308251953125,1.3820419311523438,-0.02870982140302658,-1.478097677230835
1717002225920748000,11.182748046875,1.7364096641540527,0.004886778071522713,-1.5031423568725586
1717002225930413300,11.192413330078125,1.816430687904358,0.3530697226524353,-1.6314966678619385
1717002225940078800,11.202078857421874,1.4468680620193481,1.1735138893127441,-1.8294111490249634
1717002225949744400,11.211744384765625,0.7760814428329468,2.125213861465454,-1.9833446741104126
1717002225959409700,11.22140966796875,0.20249587297439575,2.744002342224121,-1.9980050325393677
1717002225969075200,11.2310751953125,-0.18844637274742126,2.998725652694702,-1.8966044187545776
1717002225978740700,11.24074072265625,-0.43767204880714417,3.2540597915649414,-1.818415880203247
1717002225988406000,11.250406005859375,-0.610541820526123,3.5613157749176025,-1.818415880203247
1717002225998071600,11.260071533203124,-0.638029932975769,3.7794647216796875,-1.8837765455245972
1717002226007736800,11.26973681640625,-0.5140279531478882,3.671344757080078,-1.9705169200897217
1717002226017402400,11.27940234375,-0.2990097403526306,3.363401412963867,-2.058478832244873
1717002226027068000,11.28906787109375,-0.06749862432479858,2.9077093601226807,-2.1348347663879395
1717002226036733200,11.298733154296874,0.20493926107883453,2.255324363708496,-2.1543819904327393
1717002226046398700,11.308398681640625,0.5488462448120117,1.4074684381484985,-2.1000165939331055
1717002226056064300,11.318064208984374,0.8377770185470581,0.5796940326690674,-1.980290412902832
1717002226065729500,11.3277294921875,1.017976999282837,-0.047646086663007736,-1.754276990890503
1717002226075395000,11.33739501953125,1.1859599351882935,-0.5247178077697754,-1.371199369430542
1717002226085060600,11.347060546875,1.3881504535675049,-0.856407880783081,-0.8751913905143738
1717002226094726000,11.356725830078124,1.5378843545913696,-1.009730577468872,-0.3694098889827728
1717002226104391400,11.366391357421875,1.576367735862732,-1.0085088014602661,0.016034740954637527
1717002226114057000,11.376056884765624,1.5323866605758667,-0.284654825925827,-0.31260108947753906
1717002226123722200,11.38572216796875,1.4235795736312866,0.7379034757614136,-1.0602781772613525
1717002226133387800,11.3953876953125,1.2232216596603394,0.5515950918197632,-0.8831323981285095
1717002226143053000,11.405052978515625,0.7638645172119141,0.11545012891292572,0.04413371533155441
1717002226152718600,11.414718505859375,0.14874130487442017,0.006719320081174374,1.1260205507278442
1717002226162384100,11.424384033203125,-0.39735615253448486,0.06963659077882767,1.8523179292678833
1717002226172049400,11.43404931640625,-0.693617045879364,0.37444937229156494,2.1815645694732666
1717002226181715000,11.44371484375,-0.7241594195365906,0.5900784730911255,2.266472339630127
1717002226191380500,11.45338037109375,-0.6276455521583557,0.3249707520008087,2.2713592052459717
1717002226201045800,11.463045654296875,-0.5763344168663025,-0.35978904366493225,2.3379416465759277
1717002226210711300,11.472711181640625,-0.6050441861152649,-1.1697725057601929,2.40269136428833
1717002226220376800,11.482376953125,-0.6624638438224792,-1.9663937091827393,2.419795036315918
1717002226230042000,11.4920419921875,-0.7149966955184937,-2.6004531383514404,2.342217445373535
1717002226239707600,11.501707763671876,-0.7461498975753784,-2.9712374210357666,2.1699585914611816
1717002226249373200,11.511373291015625,-0.7699729800224304,-3.050647497177124,1.9647138118743896
1717002226259038500,11.52103857421875,-0.7925743460655212,-2.948636054992676,1.8034502267837524
1717002226268704000,11.5307041015625,-0.8316685557365417,-2.7653818130493164,1.7222075462341309
1717002226278369500,11.54036962890625,-0.9196305274963379,-2.53509259223938,1.7148773670196533
1717002226288034800,11.550034912109375,-1.0705097913742065,-2.338399648666382,1.754582405090332
1717002226297700400,11.559700439453126,-1.2520078420639038,-2.346951484680176,1.796120047569275
1717002226307366000,11.569365966796875,-1.4083846807479858,-2.555861234664917,1.819332242012024
1717002226317031200,11.57903125,-1.5061203241348267,-2.8148605823516846,1.8376575708389282
1717002226326696700,11.58869677734375,-1.5397168397903442,-3.0323221683502197,1.8364359140396118
1717002226336362000,11.598362060546876,-1.54765784740448,-3.212522029876709,1.8107802867889404
1717002226346027500,11.608027587890625,-1.558042287826538,-3.288267135620117,1.7368677854537964
1717002226355693000,11.617693115234376,-1.5702592134475708,-3.0903525352478027,1.5597220659255981
1717002226365358300,11.6273583984375,-1.5690375566482544,-2.1643083095550537,1.0501991510391235
1717002226375023900,11.63702392578125,-1.4761887788772583,0.05008947476744652,-0.23563432693481445
1717002226384689400,11.646689453125,-1.101052165031433,3.2723851203918457,-2.423154830932617
1717002226394354700,11.656354736328124,-0.615428626537323,5.241833209991455,-4.344956398010254
1717002226404020200,11.666020263671875,-0.40102121233940125,3.131890296936035,-4.480564594268799
1717002226413685800,11.675685791015624,-0.3509317636489868,-0.4831801950931549,-3.3608052730560303
1717002226423351000,11.68535107421875,-0.2727433145046234,-2.466066837310791,-2.052370548248291
1717002226433016600,11.6950166015625,-0.12613995373249054,-2.4184205532073975,-0.9497147798538208
1717002226442681900,11.704681884765625,0.025350160896778107,-1.3811256885528564,-0.21242213249206543
1717002226452347400,11.714347412109374,0.29473379254341125,0.1692046970129013,0.030695075169205666
1717002226462013000,11.724012939453125,0.7528692483901978,1.5565152168273926,-0.14522893726825714
1717002226471678200,11.73367822265625,1.2391036748886108,2.028700113296509,-0.5514423847198486
1717002226481343700,11.74334375,1.5873630046844482,2.1087210178375244,-1.1360231637954712
1717002226491009300,11.75300927734375,1.5464361906051636,1.1735138893127441,-1.8544559478759766
1717002226500674600,11.762674560546875,0.9880454540252686,-0.5760289430618286,-2.335803508758545
1717002226510340000,11.772340087890624,0.2476985603570938,-1.1819894313812256,-2.127504587173462
1717002226520005600,11.782005615234375,-0.17378604412078857,0.03237490355968475,-1.7164044380187988
1717002226529671000,11.7916708984375,-0.1823379099369049,1.7416019439697266,-1.385859727859497
1717002226539336400,11.80133642578125,0.016798298805952072,2.844792127609253,-0.9307785034179688
1717002226549002000,11.811001953125,0.23364907503128052,2.7488889694213867,-0.15866757929325104
1717002226558667300,11.820667236328125,0.46454933285713196,1.3818128108978271,1.0086615085601807
1717002226568332800,11.830332763671874,0.6960604786872864,0.022601349279284477,2.1320860385894775
1717002226577998300,11.839998291015625,0.7986828088760376,-0.6377245187759399,2.790579319000244
1717002226587663600,11.84966357421875,0.7870767116546631,-1.0378295183181763,3.0324747562408447
1717002226597329200,11.8593291015625,0.698503851890564,-1.5179554224014282,2.995213270187378
1717002226606994700,11.86899462890625,0.5433486104011536,-2.145371913909912,2.8608267307281494
1717002226616660000,11.878659912109375,0.28373855352401733,-2.5344815254211426,2.6409218311309814
1717002226626325500,11.888325439453125,0.04062134400010109,-2.0415279865264893,2.127199172973633
1717002226635991000,11.897990966796876,0.0656660795211792,-0.28221142292022705,1.061805248260498
1717002226645656300,11.90765625,0.29717719554901123,0.8338065147399902,0.14858859777450562
1717002226655321900,11.91732177734375,0.5042544007301331,0.7708892226219177,-0.24724042415618896
1717002226664987100,11.926987060546875,0.7143858671188354,0.3439069986343384,-0.36696648597717285
1717002226674652700,11.936652587890626,0.9318475127220154,-0.051922015845775604,-0.423164427280426
1717002226684318200,11.946318115234375,1.1395355463027954,-0.06719319522380829,-0.5746545791625977
1717002226693983500,11.9559833984375,1.3093510866165161,0.45385950803756714,-0.8758022785186768
1717002226703649000,11.96564892578125,1.355164647102356,1.1277004480361938,-1.1885560750961304
1717002226713314600,11.975314453125,1.2849172353744507,1.6383687257766724,-1.3815838098526
1717002226722979800,11.984979736328125,1.1199884414672852,1.9590635299682617,-1.4341166019439697
1717002226732645400,11.994645263671876,0.8359444737434387,2.420253276824951,-1.421899676322937
1717002226742311000,12.004310791015625,0.5268557667732239,3.155102491378784,-1.4774868488311768
1717002226751976200,12.01397607421875,0.23975755274295807,3.985931158065796,-1.6266099214553833
1717002226761641700,12.023641845703125,-0.05467082932591438,4.547910690307617,-1.7164044380187988
1717002226771307000,12.03330712890625,-0.4059080183506012,4.693902969360352,-1.6718125343322754
1717002226780972500,12.04297265625,-0.7211052179336548,4.695124626159668,-1.515970230102539
1717002226790638000,12.05263818359375,-0.9037485122680664,4.649921894073486,-1.3168339729309082
1717002226800303600,12.0623037109375,-0.9184088706970215,4.366488933563232,-1.1726740598678589
1717002226809969000,12.071968994140626,-0.7601994276046753,3.7391488552093506,-1.080436110496521
1717002226819634400,12.081634521484375,-0.4718795120716095,2.8777778148651123,-0.9936957955360413
1717002226829300000,12.091300048828124,-0.10231691598892212,1.8552194833755493,-0.8990144729614258
1717002226838965200,12.10096533203125,0.3179459869861603,0.7934905886650085,-0.7896727919578552
1717002226848630800,12.110630859375,0.6868977546691895,-0.11483928561210632,-0.668114185333252
1717002226858296000,12.120296142578125,0.878703773021698,-0.6994200944900513,-0.5563291311264038
1717002226867961600,12.129961669921874,0.9697200059890747,-1.0195040702819824,-0.4372139275074005
1717002226877627100,12.139627197265625,1.0595145225524902,-1.1880979537963867,-0.3071034550666809
1717002226887292400,12.14929248046875,1.157250165939331,-1.2821683883666992,-0.1769929975271225
1717002226896958000,12.1589580078125,1.2152806520462036,-1.321873426437378,-0.05115845799446106
1717002226906623500,12.16862353515625,1.2134480476379395,-1.3359229564666748,0.03924693539738655
1717002226916288800,12.178288818359375,1.128540277481079,-1.1141854524612427,-0.25212720036506653
1717002226925954300,12.187954345703124,0.9410101771354675,-0.8942803740501404,-0.5923691391944885
1717002226935619800,12.197619873046875,0.7663078904151917,-1.3499724864959717,0.06490252166986465
