time,seconds_elapsed,z,y,x
1717003856702977500,0.0479775390625,1.0409600734710693,1.0584455728530884,-0.09949174523353577
1717003856712643000,0.05764306640625,0.8283852338790894,1.2594143152236938,0.3739912211894989
1717003856722308600,0.06730859375,0.5009710788726807,1.379751205444336,0.9439117312431335
1717003856731974100,0.07697412109375,0.26762744784355164,1.3418787717819214,1.552315592765808
1717003856741639700,0.0866396484375,0.168670192360878,1.1488510370254517,2.1472809314727783
1717003856751305200,0.09630517578125,0.1259108930826187,0.7707365155220032,2.612135648727417
1717003856760970800,0.105970703125,-0.3310028612613678,-0.6122216582298279,2.3250374794006348
1717003856770636300,0.11563623046875,-1.0763128995895386,-2.738046407699585,1.4051014184951782
1717003856780301800,0.1253017578125,-1.485580563545227,-3.5285592079162598,1.047144889831543
1717003856789967400,0.13496728515625,-1.6498984098434448,-3.3030800819396973,1.1784770488739014
1717003856799633000,0.1446328125,-1.6773865222930908,-3.2548232078552246,1.2713258266448975
1717003856809298400,0.15429833984375,-1.573542594909668,-3.7997753620147705,1.1296093463897705
1717003856818964000,0.1639638671875,-1.4929107427597046,-4.123524188995361,0.7215633392333984
1717003856828629500,0.17362939453125,-1.580872654914856,-3.5102338790893555,0.22127941250801086
1717003856838295000,0.183294921875,-1.7036529779434204,-2.407578229904175,-0.07017108052968979
1717003856847960600,0.192960693359375,-1.7317520380020142,-1.066157579421997,-0.23387815058231354
1717003856857626000,0.202626220703125,-1.5509412288665771,-0.38071054220199585,-0.18989713490009308
1717003856867291600,0.212291748046875,-1.2198619842529297,0.15805672109127045,-0.1336991935968399
1717003856876957200,0.221957275390625,-0.8252546191215515,0.5178457498550415,-0.17157171666622162
1717003856886622700,0.231622802734375,-0.4715740978717804,0.4885250926017761,-0.33527877926826477
1717003856896288300,0.241288330078125,-0.26991814374923706,0.04504998400807381,-0.5588488578796387
1717003856905953800,0.250953857421875,-0.1990598440170288,-0.5627430081367493,-0.6681905388832092
1717003856915619300,0.260619384765625,-0.16912832856178284,-0.8780165910720825,-0.6284855008125305
1717003856925284900,0.270284912109375,-0.12514732778072357,-0.6897992491722107,-0.5252522826194763
1717003856934950400,0.279950439453125,-0.050013117492198944,-0.34039464592933655,-0.44278791546821594
1717003856944616000,0.289615966796875,0.01046075951308012,-0.2970244884490967,-0.45439401268959045
1717003856954281500,0.299281494140625,-0.021303297951817513,-0.6873558759689331,-0.5509078502655029
1717003856963947000,0.308947021484375,-0.13797512650489807,-1.2072632312774658,-0.6468108892440796
1717003856973612500,0.318612548828125,-0.27052897214889526,-1.3282109498977661,-0.6889593601226807
1717003856983278000,0.328278076171875,-0.35054996609687805,-1.2097066640853882,-0.7647044062614441
1717003856992943600,0.337943603515625,-0.3787252902984619,-1.0569947957992554,-0.8441145420074463
1717003857002609200,0.347609130859375,-0.3468848764896393,-1.0014077425003052,-0.8764894604682922
1717003857012274700,0.357274658203125,-0.253425270318985,-1.0246199369430542,-0.8563315272331238
1717003857021940200,0.366940185546875,-0.09399411827325821,-1.1186903715133667,-0.7909708619117737
1717003857031605800,0.376605712890625,0.12102411687374115,-1.3153831958770752,-0.6901810169219971
1717003857041271300,0.386271240234375,0.35925453901290894,-1.5701065063476562,-0.5716766715049744
1717003857050936800,0.395936767578125,0.6237514019012451,-1.8211647272109985,-0.4342360496520996
1717003857060602400,0.405602294921875,0.8766421675682068,-2.1326968669891357,-0.2912977933883667
1717003857070268000,0.415267822265625,1.0507336854934692,-2.4759929180145264,-0.18989713490009308
1717003857079933400,0.424933349609375,1.1350305080413818,-2.657414674758911,-0.16301986575126648
1717003857089599000,0.434598876953125,1.1350305080413818,-2.648862838745117,-0.2149418741464615
1717003857099264500,0.444264404296875,1.0403492450714111,-2.4350662231445312,-0.32245099544525146
1717003857108930000,0.453929931640625,0.8570950627326965,-2.0257985591888428,-0.4580591022968292
1717003857118595600,0.463595703125,0.5932090282440186,-1.5493377447128296,-0.6046624183654785
1717003857128261000,0.47326123046875,0.3354314863681793,-1.1565629243850708,-0.8099071383476257
1717003857137926700,0.4829267578125,0.1540098637342453,-0.8957311511039734,-1.1519815921783447
1717003857147592200,0.49259228515625,0.03306210786104202,-0.8584694862365723,-1.4567943811416626
1717003857157257700,0.5022578125,-0.06650599837303162,-0.8493067622184753,-1.6052302122116089
1717003857166923300,0.51192333984375,-0.16912832856178284,-0.6904101371765137,-1.6205013990402222
1717003857176588800,0.5215888671875,-0.2387649267911911,-0.5181511640548706,-1.5539190769195557
1717003857186254300,0.53125439453125,-0.20822255313396454,-0.5297572612762451,-1.4506858587265015
1717003857195920000,0.540919921875,-0.07322531193494797,-0.6659762263298035,-1.3663889169692993
1717003857205585400,0.55058544921875,0.04772244393825531,-0.7429429888725281,-1.2998065948486328
1717003857215251000,0.5602509765625,0.13629528880119324,-0.7600467205047607,-1.2289483547210693
1717003857224916500,0.56991650390625,0.16378341615200043,-0.7258392572402954,-1.1550358533859253
1717003857234582000,0.57958203125,0.1008661538362503,-0.705070436000824,-1.0896751880645752
1717003857244247600,0.58924755859375,-0.03168770298361778,-0.6806365847587585,-1.0640195608139038
1717003857253913000,0.5989130859375,-0.15813308954238892,-0.6311579346656799,-1.0860100984573364
1717003857263578600,0.60857861328125,-0.22166119515895844,-0.5841227173805237,-1.129991054534912
1717003857273244200,0.618244140625,-0.20822255313396454,-0.5401417016983032,-1.1550358533859253
1717003857282909700,0.62790966796875,-0.12942326068878174,-0.4619532525539398,-1.1287693977355957
1717003857292575200,0.6375751953125,-0.014583977870643139,-0.3465031087398529,-1.0408073663711548
1717003857302240800,0.64724072265625,0.09781191498041153,-0.2829749882221222,-0.8917606472969055
1717003857311906300,0.65690625,0.14790138602256775,-0.36605021357536316,-0.6920135617256165
1717003857321571800,0.66657177734375,0.10697462409734726,-0.4937172830104828,-0.45683738589286804
1717003857331237400,0.6762373046875,0.00129805039614439,-0.566408097743988,-0.2613662779331207
1717003857340903000,0.68590283203125,-0.13736428320407867,-0.5932853817939758,-0.17951273918151855
1717003857350568400,0.695568359375,-0.276637464761734,-0.5993938446044922,-0.2399866133928299
1717003857360234000,0.70523388671875,-0.38788801431655884,-0.4784461259841919,-0.40552622079849243
1717003857369899500,0.7148994140625,-0.45202696323394775,-0.17974179983139038,-0.6046624183654785
1717003857379565000,0.72456494140625,-0.48012593388557434,0.16050012409687042,-0.7848623991012573
1717003857389230600,0.734230712890625,-0.4831801950931549,0.402395635843277,-0.9259681105613708
1717003857398896000,0.743896240234375,-0.4837910234928131,0.5318952798843384,-1.023703694343567
1717003857408561700,0.753561767578125,-0.518609344959259,0.6326850652694702,-1.0750148296356201
1717003857418227200,0.763227294921875,-0.6016845703125,0.7408050298690796,-1.079290747642517
1717003857427892500,0.772892578125,-0.7067502737045288,0.8293778896331787,-1.046915888786316
1717003857437558300,0.782558349609375,-0.786771297454834,0.8586985468864441,-0.9766684174537659
1717003857447223800,0.792223876953125,-0.80937260389328,0.8422056436538696,-0.8764894604682922
1717003857456889300,0.801889404296875,-0.786160409450531,0.7756233215332031,-0.7653152346611023
1717003857466554600,0.8115546875,-0.7769976854324341,0.6931589245796204,-0.6480326056480408
1717003857476220400,0.821220458984375,-0.790436327457428,0.6253548860549927,-0.5411342978477478
1717003857485886000,0.830885986328125,-0.813648521900177,0.5691569447517395,-0.463556706905365
1717003857495551200,0.84055126953125,-0.8215895891189575,0.5141806602478027,-0.40369367599487305
1717003857505216800,0.850216796875,-0.8222004175186157,0.48363831639289856,-0.32672691345214844
1717003857514882600,0.859882568359375,-0.7953231334686279,0.45859357714653015,-0.24181915819644928
1717003857524548000,0.869548095703125,-0.7360709309577942,0.4262186884880066,-0.1617981642484665
1717003857534213400,0.87921337890625,-0.6420004963874817,0.36635565757751465,-0.08788564801216125
1717003857543879000,0.88887890625,-0.5210527181625366,0.31199023127555847,-0.02367033064365387
1717003857553544700,0.898544677734375,-0.3811686933040619,0.28816720843315125,0.029473381116986275
1717003857563210000,0.9082099609375,-0.20333577692508698,0.2588465213775635,0.04230117425322533
1717003857572875500,0.91787548828125,-0.0005344913806766272,0.23991025984287262,0.0068720318377017975
1717003857582541000,0.927541015625,0.193104088306427,0.20570281147956848,-0.0261137206107378
1717003857592206600,0.93720654296875,0.34337252378463745,0.06642963737249374,-0.016340164467692375
1717003857601872100,0.9468720703125,0.454546719789505,-0.1644706279039383,0.037414394319057465
1717003857611537700,0.95653759765625,0.5131880640983582,-0.4088095426559448,0.13087402284145355
1717003857621203200,0.966203125,0.5290700793266296,-0.6439857482910156,0.252432644367218
1717003857630868700,0.97586865234375,0.5302917957305908,-0.8205205798149109,0.3843756318092346
1717003857640534300,0.9855341796875,0.5571690797805786,-0.9397121667861938,0.49677154421806335
1717003857650199800,0.99519970703125,0.637190043926239,-1.0172897577285767,0.5560237169265747
1717003857659865300,1.004865234375,0.7575269341468811,-1.0795961618423462,0.5560237169265747
1717003857669531000,1.01453076171875,0.900465190410614,-1.161449670791626,0.5193728804588318
1717003857679196400,1.024196533203125,1.0831085443496704,-1.34653639793396,0.45828816294670105
1717003857688862000,1.033862060546875,1.2828556299209595,-1.648905873298645,0.4143071472644806
1717003857698527500,1.043527587890625,1.4948196411132812,-2.0936026573181152,0.4656183123588562
1717003857708193000,1.053193115234375,1.6994534730911255,-2.6781835556030273,0.6134433746337891
1717003857717858600,1.062858642578125,1.8894269466400146,-3.3788251876831055,0.8614473342895508
1717003857727524000,1.072524169921875,2.0714592933654785,-4.121691703796387,1.2224581241607666
1717003857737189600,1.082189697265625,2.2589895725250244,-4.742312908172607,1.7349588871002197
1717003857746855200,1.091855224609375,2.479581832885742,-5.156466960906982,2.4197187423706055
1717003857756520700,1.101520751953125,2.7404134273529053,-5.366598606109619,3.201068639755249
1717003857766186200,1.111186279296875,3.0525565147399902,-5.532749176025391,3.993337631225586
1717003857775851800,1.120851806640625,3.3799705505371094,-5.809463024139404,4.734906196594238
1717003857785517300,1.130517333984375,3.6689014434814453,-6.124049186706543,5.406303882598877
1717003857795182800,1.140182861328125,3.864372491836548,-6.309823036193848,5.983554363250732
1717003857804848400,1.149848388671875,3.9187378883361816,-6.333035469055176,6.4325270652771
1717003857814514000,1.159513916015625,3.8026769161224365,-6.196816444396973,6.7067975997924805
1717003857824179500,1.169179443359375,3.517411231994629,-5.877266883850098,6.741004943847656
1717003857833845000,1.178844970703125,3.1264688968658447,-5.406303882598877,6.525986671447754
1717003857843510500,1.188510498046875,2.72575306892395,-4.825998783111572,6.149704933166504
1717003857853176000,1.198176025390625,2.3134312629699707,-4.194382667541504,5.684850215911865
1717003857862841600,1.207841552734375,1.8546086549758911,-3.6757733821868896,5.155779838562012
1717003857872507100,1.217507080078125,1.3524922132492065,-3.40020489692688,4.643279075622559
1717003857882172700,1.227172607421875,0.8442672491073608,-3.2664294242858887,4.197971343994141
1717003857891838200,1.236838134765625,0.3348206579685211,-3.18091082572937,3.793590545654297
1717003857901503700,1.246503662109375,-0.09765920788049698,-3.073401689529419,3.4338014125823975
1717003857911169300,1.256169189453125,-0.4056025743484497,-2.900531768798828,3.053243637084961
1717003857920834800,1.265834716796875,-0.5748072862625122,-2.628704786300659,2.562656879425049
1717003857930500400,1.275500244140625,-0.6145123243331909,-2.264029026031494,2.004953384399414
1717003857940166000,1.285165771484375,-0.6310052275657654,-1.8749192953109741,1.4747380018234253
1717003857949831400,1.29483154296875,-0.6316160559654236,-1.48703134059906,0.9433009028434753
1717003857959497000,1.3044970703125,-0.48073679208755493,-1.158395528793335,0.3086305856704712
1717003857969162500,1.31416259765625,-0.1465269923210144,-0.7453863620758057,-0.34932827949523926
1717003857978828000,1.323828125,0.31649523973464966,-0.13270656764507294,-0.9522345066070557
1717003857988493600,1.33349365234375,0.7306496500968933,0.6345176100730896,-1.3822709321975708
1717003857998159000,1.3431591796875,1.1942827701568604,1.1855018138885498,-1.6290532350540161
1717003858007824600,1.35282470703125,1.7800853252410889,1.2502516508102417,-1.708463430404663
1717003858017490200,1.362490234375,2.328091621398926,0.816550076007843,-1.5832397937774658
1717003858027155700,1.37215576171875,2.748354434967041,0.2692309319972992,-1.2759835720062256
1717003858036821200,1.3818212890625,3.104478597640991,-0.23899398744106293,-0.8361735343933105
1717003858046486800,1.39148681640625,3.399517774581909,-0.7850914597511292,-0.3193967640399933
1717003858056152300,1.40115234375,3.6670687198638916,-1.4088428020477295,0.26098448038101196
1717003858065817900,1.41081787109375,3.835662603378296,-1.9054616689682007,0.8779402375221252
1717003858075483400,1.4204833984375,3.9669947624206543,-2.1491897106170654,1.5193297863006592
1717003858085149000,1.43014892578125,4.12825870513916,-2.2273781299591064,1.9603615999221802
1717003858094814500,1.439814453125,4.163687705993652,-2.2707483768463135,2.0788660049438477
1717003858104480000,1.44947998046875,3.853377103805542,-2.3000690937042236,1.903552770614624
1717003858114145500,1.4591455078125,3.323772668838501,-1.805282711982727,1.5498721599578857
1717003858123811000,1.46881103515625,2.953599214553833,-0.511431872844696,1.1057862043380737
1717003858133476600,1.4784765625,2.985974073410034,0.5935907959938049,0.5725166201591492
1717003858143142100,1.48814208984375,3.3891332149505615,1.084712028503418,0.09116895496845245
1717003858152807700,1.4978076171875,3.8552098274230957,0.9265025854110718,-0.3725404739379883
1717003858162473200,1.50747314453125,4.169185161590576,0.6742226481437683,-0.8997016549110413
1717003858172138800,1.517138671875,4.382981777191162,0.6424586176872253,-1.356615424156189
1717003858181804300,1.52680419921875,4.483771800994873,0.6962131857872009,-1.679142713546753
1717003858191469800,1.5364697265625,4.425130367279053,0.5740436911582947,-1.8941609859466553
1717003858201135400,1.54613525390625,4.263866424560547,0.3584146201610565,-1.8911067247390747
1717003858210801000,1.55580078125,3.8753676414489746,0.13973131775856018,-1.5814071893692017
1717003858220466400,1.565466552734375,3.0250682830810547,0.24479703605175018,-0.9730033278465271
1717003858230132000,1.575132080078125,1.9462357759475708,0.41888850927352905,-0.20944425463676453
1717003858239797500,1.584797607421875,1.2144407033920288,-0.04352286830544472,0.4534013867378235
1717003858249463000,1.594463134765625,0.8552625179290771,-0.774707019329071,0.8419002294540405
1717003858259128600,1.604128662109375,0.6402443051338196,-1.2164260149002075,0.885881245136261
1717003858268794000,1.613794189453125,0.5431195497512817,-1.4986374378204346,0.6103891134262085
1717003858278459600,1.623459716796875,0.6072585582733154,-1.7429763078689575,0.1369825005531311
1717003858288125000,1.633125,0.8467106819152832,-1.9176785945892334,-0.3438306450843811
1717003858297790700,1.642790771484375,1.2407071590423584,-2.1180365085601807,-0.7897491455078125
1717003858307456300,1.652456298828125,1.753208041191101,-2.4582784175872803,-1.1971843242645264
1717003858317121800,1.662121826171875,2.3091554641723633,-2.9225223064422607,-1.5105489492416382
1717003858326787000,1.671787109375,2.736748456954956,-3.166250467300415,-1.5453672409057617
1717003858336452600,1.68145263671875,2.9285545349121094,-2.743544101715088,-1.101892113685608
1717003858346118400,1.691118408203125,2.835094928741455,-1.5670522451400757,-0.2143310308456421
1717003858355783700,1.70078369140625,2.569376230239868,-0.409420371055603,0.7319477200508118
1717003858365449200,1.71044921875,2.2596004009246826,-0.43446511030197144,1.0251544713974
1717003858375114800,1.72011474609375,1.8808751106262207,-1.203598141670227,0.7398887276649475
1717003858384780300,1.7297802734375,1.6090480089187622,-1.4613757133483887,0.4918847680091858
1717003858394445800,1.73944580078125,1.4337348937988281,-1.3013337850570679,0.3080197274684906
1717003858404111400,1.749111328125,1.3457728624343872,-0.9293277263641357,0.1369825005531311
1717003858413777000,1.75877685546875,1.3427186012268066,-0.4802786707878113,-0.032222192734479904
1717003858423442400,1.7684423828125,1.408690094947815,-0.06245913356542587,-0.19661645591259003
1717003858433108000,1.77810791015625,1.5235294103622437,0.2710634768009186,-0.3413872718811035
1717003858442773500,1.7877734375,1.6768521070480347,0.5111264586448669,-0.4647783935070038
1717003858452439000,1.79743896484375,1.8625496625900269,0.6687250137329102,-0.5545729398727417
1717003858462104600,1.8071044921875,2.052523136138916,0.760962963104248,-0.5594597458839417
1717003858471770000,1.81677001953125,2.2394423484802246,0.8073873519897461,-0.4519506096839905
1717003858481435600,1.826435546875,2.4148318767547607,0.7951704263687134,-0.27175068855285645
1717003858491101200,1.83610107421875,2.5760955810546875,0.7237012982368469,-0.07811209559440613
1717003858500766700,1.8457666015625,2.724531412124634,0.6332958936691284,0.005650337319821119
1717003858510432300,1.855432373046875,2.863804578781128,0.4940227270126343,-0.03718532621860504
1717003858520097800,1.865097900390625,2.985363245010376,0.23685602843761444,-0.10071343928575516
1717003858529763300,1.874763427734375,3.0794336795806885,-0.06734590977430344,-0.1471378356218338
1717003858539428900,1.884428955078125,3.14418363571167,-0.23777230083942413,-0.24487338960170746
1717003858549094400,1.894094482421875,3.1887753009796143,-0.40819868445396423,-0.36093437671661377
1717003858558760000,1.903760009765625,3.2071008682250977,-0.6879667043685913,-0.4244624972343445
1717003858568425500,1.913425537109375,3.1741151809692383,-1.0252307653427124,-0.4220190942287445
1717003858578091000,1.923091064453125,3.066606044769287,-1.3563100099563599,-0.38903334736824036
1717003858587756500,1.932756591796875,2.9456582069396973,-1.6989953517913818,-0.40063944458961487
1717003858597422000,1.942422119140625,2.890071153640747,-2.0795531272888184,-0.3682645559310913
1717003858607087600,1.952087646484375,2.87602162361145,-2.3312222957611084,-0.2686964273452759
1717003858616753200,1.961753173828125,2.944436550140381,-2.387420177459717,-0.019394399598240852
1717003858626418700,1.971418701171875,3.2235937118530273,-2.338552474975586,0.3458922505378723
1717003858636084200,1.981084228515625,3.91934871673584,-2.3293895721435547,0.7185090780258179
1717003858645749800,1.990749755859375,4.93274450302124,-2.7423224449157715,1.2548329830169678
1717003858655415300,2.000415283203125,5.422109127044678,-3.062406301498413,1.797876238822937
1717003858665080800,2.010080810546875,4.714672088623047,-3.573151111602783,2.0880286693573
1717003858674746400,2.019746337890625,2.9145050048828125,-4.5376787185668945,2.114905834197998
1717003858684412000,2.029411865234375,0.5852680206298828,-5.758762359619141,1.8620151281356812
1717003858694077400,2.039077392578125,-1.23940908908844,-6.369075298309326,1.4020471572875977
1717003858703743000,2.048742919921875,-1.794669270515442,-5.673854827880859,0.8443436026573181
1717003858713408500,2.058408447265625,-1.2827792167663574,-3.2572667598724365,-0.27297237515449524
1717003858723074000,2.068073974609375,-0.3419981002807617,-0.5016583204269409,-1.5282634496688843
1717003858732739600,2.077739501953125,0.2828986346721649,1.0260707139968872,-2.151327610015869
1717003858742405000,2.087405029296875,0.5480063557624817,1.6424155235290527,-2.3889472484588623
1717003858752070700,2.097070556640625,0.5614449977874756,1.7542005777359009,-2.475076675415039
1717003858761736200,2.106736083984375,0.40873315930366516,1.3907464742660522,-2.5050082206726074
1717003858771401700,2.116401611328125,0.14912308752536774,0.28755635023117065,-2.3803954124450684
1717003858781067300,2.1260673828125,-0.044515494257211685,-1.2897276878356934,-2.0071678161621094
1717003858790732800,2.13573291015625,0.026342788711190224,-2.384976863861084,-1.5850722789764404
1717003858800398300,2.1453984375,0.23036576807498932,-2.575561046600342,-1.3370683193206787
1717003858810064000,2.15506396484375,0.3897969126701355,-2.0447349548339844,-1.2277265787124634
1717003858819729400,2.1647294921875,0.46432027220726013,-1.0258415937423706,-1.2289483547210693
1717003858829395000,2.17439501953125,0.47287213802337646,0.24052110314369202,-1.2655991315841675
1717003858839060500,2.184060546875,0.4533250331878662,1.4658807516098022,-1.230780839920044
1717003858848726000,2.19372607421875,0.38491013646125793,2.4787418842315674,-1.1232717037200928
1717003858858391600,2.2033916015625,0.2853420376777649,3.1335701942443848,-0.9656731486320496
1717003858868057000,2.21305712890625,0.21692712604999542,3.3797414302825928,-0.7616502046585083
1717003858877722600,2.22272265625,0.2212030589580536,3.2661240100860596,-0.5038726329803467
1717003858887388200,2.23238818359375,0.26762744784355164,2.900226354598999,-0.1874537467956543
1717003858897053700,2.2420537109375,0.30733251571655273,2.4390368461608887,0.15530791878700256
1717003858906719200,2.25171923828125,0.3122192919254303,2.0884103775024414,0.4680617153644562
1717003858916384800,2.261384765625,0.2731250822544098,1.866062045097351,0.7172874212265015
1717003858926050300,2.27105029296875,0.20104511082172394,1.7059437036514282,0.9035958051681519
1717003858935715800,2.2807158203125,0.12285665422677994,1.5532318353652954,1.0330954790115356
1717003858945381400,2.29038134765625,0.05077667906880379,1.3473763465881348,1.1106730699539185
1717003858955047000,2.300046875,-0.005421269219368696,1.0822685956954956,1.1552648544311523
1717003858964712400,2.30971240234375,-0.0695602297782898,0.8098307251930237,1.171757698059082
1717003858974378000,2.3193779296875,-0.07750124484300613,0.5966450572013855,1.1723686456680298
1717003858984043500,2.32904345703125,-0.03474193811416626,0.4140017330646515,1.1577082872390747
1717003858993709000,2.338708984375,0.00129805039614439,0.2295258641242981,1.103342890739441
1717003859003374600,2.34837451171875,-0.010308047756552696,0.08353336155414581,0.9762866497039795
1717003859013040000,2.3580400390625,-0.0555107444524765,0.012064233422279358,0.783869743347168
1717003859022705700,2.36770556640625,-0.09277242422103882,0.041384901851415634,0.5511369109153748
1717003859032371200,2.37737109375,-0.10926530510187149,0.15683503448963165,0.3080197274684906
1717003859042036700,2.38703662109375,-0.10071343928575516,0.30221667885780334,0.08628217875957489
1717003859051702300,2.396702392578125,-0.07444700598716736,0.4133908748626709,-0.08422056585550308
1717003859061367800,2.406367919921875,-0.04818057641386986,0.43538138270378113,-0.19295138120651245
1717003859071033300,2.416033447265625,-0.03352024406194687,0.3455868363380432,-0.24670593440532684
1717003859080699000,2.425698974609375,-0.054899897426366806,0.13179029524326324,-0.26014456152915955
1717003859090364400,2.435364501953125,-0.10132429003715515,-0.1632489264011383,-0.24181915819644928
1717003859100030000,2.445030029296875,-0.1336991935968399,-0.45828816294670105,-0.18989713490009308
1717003859109695500,2.454695556640625,-0.16546325385570526,-0.705681324005127,-0.11964970827102661
1717003859119361000,2.464361083984375,-0.18012358248233795,-0.8774057030677795,-0.03779617324471474
1717003859129026600,2.474026611328125,-0.13003410398960114,-0.9391012787818909,0.04291202127933502
1717003859138692000,2.483692138671875,-0.053678203374147415,-0.8615236878395081,0.12110047042369843
1717003859148357400,2.493357421875,-0.0011453386396169662,-0.654370129108429,0.21272756159305573
1717003859158023200,2.503023193359375,0.013514995574951172,-0.37765631079673767,0.32756683230400085
1717003859167688700,2.512688720703125,-0.0017561858985573053,-0.11499200016260147,0.4619532525539398
1717003859177354200,2.522354248046875,-0.029855160042643547,0.09575030952692032,0.6048914790153503
1717003859187019500,2.53201953125,-0.04879142343997955,0.27717193961143494,0.7618792653083801
1717003859196685300,2.541685302734375,-0.05978667363524437,0.4494308829307556,0.9243646264076233
1717003859206350800,2.551350830078125,-0.09399411827325821,0.5380037426948547,1.0709679126739502
1717003859216016100,2.56101611328125,-0.17035003006458282,0.455539345741272,1.185807228088379
1717003859225681700,2.570681640625,-0.26991814374923706,0.22158484160900116,1.260941505432129
1717003859235347500,2.580347412109375,-0.3584909737110138,0.012675080448389053,1.2847645282745361
1717003859245013000,2.590012939453125,-0.4086568057537079,0.07559234648942947,1.2206255197525024
1717003859254678300,2.59967822265625,-0.4037700295448303,0.41949936747550964,1.0782980918884277
1717003859264344000,2.609343994140625,-0.32672691345214844,0.8287670016288757,0.9298622608184814
1717003859274009600,2.619009521484375,-0.19417306780815125,1.1348015069961548,0.811357855796814
1717003859283675000,2.6286748046875,-0.08666395395994186,1.269798755645752,0.6989619731903076
1717003859293340400,2.63834033203125,-0.021303297951817513,1.2313153743743896,0.5676298141479492
1717003859303006200,2.648006103515625,0.03978142887353897,1.0114103555679321,0.4088095426559448
1717003859312671700,2.657671630859375,0.1014770045876503,0.5935907959938049,0.23838314414024353
1717003859322337000,2.6673369140625,0.14790138602256775,-0.01175880990922451,0.072843536734581
1717003859332002600,2.67700244140625,0.1821088343858719,-0.6977402567863464,-0.07261446863412857
1717003859341668000,2.686668212890625,0.21142950654029846,-1.2866734266281128,-0.18012358248233795
1717003859351333600,2.696333740234375,0.22242476046085358,-1.6696746349334717,-0.24792763590812683
1717003859360999200,2.705999267578125,0.20409934222698212,-1.8346034288406372,-0.2815242409706116
1717003859370664700,2.715664794921875,0.16011834144592285,-1.8211647272109985,-0.28518930077552795
1717003859380330200,2.725330322265625,0.09903360903263092,-1.693497657775879,-0.2650313675403595
1717003859389995800,2.734995849609375,0.026342788711190224,-1.5304014682769775,-0.22043950855731964
1717003859399661300,2.744661376953125,-0.04634803533554077,-1.374024510383606,-0.15019206702709198
1717003859409326800,2.754326904296875,-0.11598462611436844,-1.2378056049346924,-0.059175826609134674
1717003859418992400,2.763992431640625,-0.17890189588069916,-1.1028083562850952,0.04718795046210289
1717003859428658000,2.773657958984375,-0.23021306097507477,-0.9623134732246399,0.1644706279039383
1717003859438323500,2.783323486328125,-0.2613662779331207,-0.8174663186073303,0.279920756816864
1717003859447989000,2.792989013671875,-0.2656421959400177,-0.6476507782936096,0.38071054220199585
1717003859457654500,2.802654541015625,-0.25892287492752075,-0.4387410581111908,0.4540122151374817
1717003859467320000,2.812320068359375,-0.2650313675403595,-0.19745637476444244,0.4931064546108246
1717003859476985600,2.821985595703125,-0.2882435619831085,0.062153708189725876,0.49738237261772156
1717003859486651100,2.831651123046875,-0.31145575642585754,0.3309265077114105,0.46867257356643677
1717003859496316700,2.841316650390625,-0.30656898021698,0.5966450572013855,0.4100312292575836
1717003859505982200,2.850982177734375,-0.2650313675403595,0.8220477104187012,0.32756683230400085
1717003859515647700,2.860647705078125,-0.2008923888206482,0.9765920639038086,0.2279987335205078
1717003859525313300,2.870313232421875,-0.14897038042545319,1.0639432668685913,0.13087402284145355
1717003859534978800,2.879978759765625,-0.11354123055934906,1.1653438806533813,0.09605573117733002
1717003859544644400,2.889644287109375,-0.04634803533554077,1.566670536994934,0.24998924136161804
1717003859554310000,2.899309814453125,-0.052456509321928024,2.5776991844177246,0.7252284288406372
1717003859563975400,2.908975341796875,-0.18928629159927368,3.559941530227661,1.348292589187622
1717003859573641000,2.918640869140625,-0.39949411153793335,3.6332430839538574,1.741678237915039
1717003859583306500,2.928306396484375,-0.569309651851654,3.0773720741271973,1.8497982025146484
1717003859592972000,2.937971923828125,-0.6297835111618042,2.428652286529541,1.7538951635360718
1717003859602637600,2.947637451171875,-0.6279509663581848,1.6008780002593994,1.4093773365020752
1717003859612303000,2.95730322265625,-0.4062134325504303,-0.7459971904754639,0.24876753985881805
1717003859621968600,2.96696875,-0.052456509321928024,-0.6537593007087708,-0.009009997360408306
1717003859631634200,2.97663427734375,0.19004985690116882,-0.3452814221382141,-0.16607409715652466
1717003859641299700,2.9862998046875,0.25357797741889954,-0.515707790851593,-0.4458421468734741
1717003859650965200,2.99596533203125,0.17172443866729736,-0.6299362182617188,-0.5197546482086182
1717003859660630800,3.005630859375,0.007406522985547781,-0.889011800289154,-0.538080096244812
1717003859670296300,3.01529638671875,-0.12514732778072357,-1.3159940242767334,-0.5832827687263489
1717003859679961900,3.0249619140625,-0.2118876427412033,-1.586599349975586,-0.6095492243766785
1717003859689627400,3.03462744140625,-0.34016555547714233,-1.6843349933624268,-0.6009973287582397
1717003859699293000,3.04429296875,-0.5858024954795837,-1.7044929265975952,-0.5661790370941162
1717003859708958500,3.05395849609375,-1.0072871446609497,-1.6146984100341797,-0.5050943493843079
1717003859718624000,3.0636240234375,-1.5155121088027954,-1.3587533235549927,-0.40369367599487305
1717003859728289500,3.07328955078125,-1.9907512664794922,-1.0343934297561646,-0.29679539799690247
1717003859737955000,3.082955078125,-2.337712526321411,-0.7258392572402954,-0.21982865035533905
1717003859747620600,3.09262060546875,-2.50508451461792,-0.5218162536621094,-0.18317782878875732
1717003859757286100,3.1022861328125,-2.528907537460327,-0.4790569543838501,-0.19050799310207367
1717003859766951700,3.11195166015625,-2.50813889503479,-0.7172874212265015,-0.25953373312950134
1717003859776617200,3.1216171875,-2.511193037033081,-1.4088428020477295,-0.42873841524124146
1717003859786282800,3.13128271484375,-2.719491958618164,-2.2420384883880615,-0.6480326056480408
1717003859795948300,3.1409482421875,-3.1471614837646484,-2.709336757659912,-0.8361735343933105
1717003859805613800,3.15061376953125,-3.4562501907348633,-2.4784364700317383,-0.9510128498077393
1717003859815279400,3.160279296875,-3.6425585746765137,-1.6079790592193604,-1.1623660326004028
1717003859824945000,3.16994482421875,-3.489846706390381,-0.023364907130599022,-1.4103699922561646
1717003859834610400,3.1796103515625,-2.9516139030456543,1.473821759223938,-1.5752986669540405
1717003859844276000,3.18927587890625,-2.335268974304199,2.2044713497161865,-1.578352928161621
1717003859853941500,3.19894140625,-1.938218355178833,2.043818473815918,-1.4598486423492432
1717003859863607000,3.20860693359375,-1.816659688949585,1.7358752489089966,-1.1538140773773193
1717003859873272600,3.2182724609375,-1.8074970245361328,1.398687481880188,-0.8215132355690002
1717003859882938000,3.227938232421875,-1.7610726356506348,1.1152544021606445,-0.5808393955230713
1717003859892603600,3.237603759765625,-1.7366387844085693,0.9289459586143494,-0.4776062071323395
1717003859902269200,3.247269287109375,-1.858808159828186,0.8538117408752441,-0.5313607454299927
1717003859911934700,3.256934814453125,-1.8698034286499023,0.7579087615013123,-0.6321505308151245
1717003859921600300,3.266600341796875,-1.7836740016937256,0.5025745630264282,-0.7207233905792236
1717003859931265800,3.276265869140625,-1.540556788444519,0.20570281147956848,-0.7060630917549133
1717003859940931300,3.285931396484375,-1.1141854524612427,-0.07101099193096161,-0.5631248354911804
1717003859950596900,3.295596923828125,-0.5253286361694336,-0.3764346241950989,-0.36215606331825256
1717003859960262400,3.305262451171875,0.19982340931892395,-0.7075138092041016,-0.15568970143795013
1717003859969928000,3.314927978515625,0.8418238759040833,-1.1180795431137085,-0.0065666078589856625
1717003859979593500,3.324593505859375,1.2633085250854492,-1.5872102975845337,0.055739812552928925
1717003859989259000,3.334259033203125,1.6841822862625122,-2.0282418727874756,0.0587940476834774
1717003859998924500,3.343924560546875,2.2278363704681396,-2.2731916904449463,0.06795676052570343
1717003860008590000,3.353590087890625,2.8833518028259277,-2.2395951747894287,0.10033166408538818
1717003860018255600,3.363255615234375,3.5711658000946045,-1.9256196022033691,0.14125843346118927
1717003860027921200,3.372921142578125,4.19728422164917,-1.3159940242767334,0.13087402284145355
1717003860037586700,3.382586669921875,4.714672088623047,-0.35566580295562744,-0.043293800204992294
1717003860047252200,3.392252197265625,5.136843681335449,0.8183826208114624,-0.24609509110450745
1717003860056917800,3.401917724609375,5.4966325759887695,1.9228708744049072,-0.250981867313385
1717003860066583300,3.411583251953125,5.745858192443848,2.743238687515259,-0.15630054473876953
1717003860076248800,3.421248779296875,5.820992469787598,3.302774667739868,-0.027946261689066887
1717003860085914400,3.430914306640625,5.659118175506592,3.7309787273406982,0.17424418032169342
1717003860095580000,3.440579833984375,5.106301307678223,3.90690279006958,0.5358657836914062
1717003860105245400,3.450245361328125,4.228437423706055,3.782289981842041,1.053253412246704
1717003860114911000,3.459910888671875,3.020181655883789,3.5843753814697266,1.4808465242385864
1717003860124576500,3.469576416015625,1.4661097526550293,3.224586248397827,1.7410674095153809
1717003860134242000,3.479241943359375,-0.24792763590812683,2.64794659614563,1.8882815837860107
1717003860143907600,3.488907470703125,-1.4171656370162964,2.0572571754455566,1.968302607536316
1717003860153573000,3.498572998046875,-1.784895658493042,1.6118731498718262,2.025111436843872
1717003860163238700,3.50823876953125,-1.6645587682724,1.2209309339523315,2.051377773284912
1717003860172904200,3.517904296875,-1.2742273807525635,0.7689039707183838,2.0208353996276855
1717003860182569700,3.52756982421875,-0.7556180357933044,0.18065807223320007,1.890725016593933
1717003860192235300,3.5372353515625,-0.2515927255153656,-0.5322006940841675,1.5822471380233765
1717003860201900800,3.54690087890625,0.08009734749794006,-1.2170368432998657,1.057529330253601
1717003860211566300,3.55656640625,0.20348849892616272,-1.6782264709472656,0.3318427801132202
1717003860221231900,3.56623193359375,0.19127154350280762,-1.786346435546875,-0.463556706905365
1717003860230897400,3.5758974609375,0.1405712217092514,-1.5982054471969604,-1.1470948457717896
1717003860240563000,3.58556298828125,0.1393495351076126,-1.2604069709777832,-1.6504329442977905
1717003860250228500,3.595228515625,0.193104088306427,-0.949485719203949,-1.9980050325393677
1717003860259894000,3.60489404296875,0.23769593238830566,-0.8089144825935364,-2.2649452686309814
1717003860269559600,3.6145595703125,0.24930204451084137,-0.889011800289154,-2.495234727859497
1717003860279225000,3.62422509765625,0.271903395652771,-1.2848408222198486,-2.7127726078033447
1717003860288890600,3.633890625,0.33176642656326294,-1.8260514736175537,-2.8831989765167236
1717003860298556200,3.64355615234375,0.4148416519165039,-2.1198689937591553,-3.0096445083618164
1717003860308221700,3.6532216796875,0.5095229744911194,-1.9347823858261108,-3.081113576889038
1717003860317887200,3.66288720703125,0.6237514019012451,-1.2023764848709106,-3.023082971572876
1717003860327552800,3.672552734375,0.7569161057472229,-0.10949437320232391,-2.7927937507629395
1717003860337218300,3.68221826171875,0.8864157199859619,1.1787824630737305,-2.4219329357147217
1717003860346883800,3.6918837890625,0.9902597665786743,2.431706666946411,-2.0187737941741943
1717003860356549400,3.70154931640625,1.0562312602996826,3.4591517448425293,-1.6901379823684692
1717003860366215000,3.71121484375,1.0568420886993408,4.146965503692627,-1.4806174039840698
1717003860375880400,3.72088037109375,0.9499438405036926,4.558142185211182,-1.4024289846420288
1717003860385546000,3.7305458984375,0.7569161057472229,4.825693130493164,-1.3963204622268677
1717003860395211500,3.74021142578125,0.4838673770427704,4.50622034072876,-1.550253987312317
1717003860404877300,3.749877197265625,0.2584647536277771,3.4047863483428955,-1.9204274415969849
1717003860414542600,3.75954248046875,0.19004985690116882,1.6973918676376343,-2.423154830932617
1717003860424208100,3.7692080078125,0.18455222249031067,0.15927842259407043,-2.8648736476898193
1717003860433874000,3.7788740234375,0.21204034984111786,-0.4802786707878113,-3.274141311645508
1717003860443539200,3.788539306640625,0.3201603293418884,-0.41919392347335815,-3.775646924972534
1717003860453204700,3.798204833984375,0.39773792028427124,0.15316994488239288,-4.4506330490112305
1717003860462870500,3.80787060546875,0.4527141749858856,0.49890950322151184,-4.952749729156494
1717003860472536000,3.8175361328125,0.5229616165161133,0.06704048812389374,-4.846462249755859
1717003860482201600,3.82720166015625,0.5999283790588379,-0.5169295072555542,-4.137879371643066
1717003860491867100,3.8368671875,0.6665107011795044,-0.32634514570236206,-3.31262469291687
1717003860501532700,3.84653271484375,0.6597914099693298,0.6381826996803284,-2.869760513305664
1717003860511198200,3.8561982421875,0.5180748105049133,1.5788874626159668,-2.794015407562256
1717003860520863700,3.86586376953125,0.23647424578666687,1.7035002708435059,-2.9284017086029053
1717003860530529300,3.875529296875,-0.006032116711139679,1.1140327453613281,-3.225273609161377
1717003860540194800,3.88519482421875,-0.11964970827102661,0.36635565757751465,-3.599112033843994
1717003860549860400,3.8948603515625,-0.11415208131074905,-0.14492350816726685,-4.016320705413818
1717003860559526000,3.90452587890625,0.01901262067258358,-0.13209572434425354,-4.424366474151611
1717003860569191400,3.91419140625,0.21448373794555664,0.36818817257881165,-4.734677314758301
1717003860578857000,3.92385693359375,0.3653630316257477,1.0272923707962036,-4.876393795013428
1717003860588522500,3.9335224609375,0.5131880640983582,1.200773000717163,-4.962522983551025
1717003860598188000,3.94318798828125,0.7385907173156738,0.6632274389266968,-5.052928447723389
1717003860607853600,3.952853515625,0.9707126617431641,0.16111096739768982,-4.94114351272583
1717003860617519000,3.96251904296875,1.1393065452575684,0.17027367651462555,-4.737731456756592
1717003860627184600,3.9721845703125,1.2077213525772095,0.6290199756622314,-4.530043125152588
1717003860636850200,3.98185009765625,1.1545777320861816,1.4243431091308594,-4.210570335388184
1717003860646515700,3.991515625,0.9578848481178284,1.7535897493362427,-3.8599438667297363
1717003860656181200,4.00118115234375,0.7385907173156738,1.6204251050949097,-3.456173896789551
1717003860665846800,4.0108466796875,0.6286382079124451,1.3510414361953735,-2.942451238632202
1717003860675512300,4.02051220703125,0.5913764834403992,0.8977927565574646,-2.579531669616699
1717003860685177900,4.030177734375,0.5113555192947388,0.561826765537262,-2.6962034702301025
1717003860694843400,4.039843505859375,0.41056570410728455,0.6998782753944397,-2.951003074645996
1717003860704509000,4.049509033203125,0.37147149443626404,0.742637574672699,-2.9662742614746094
1717003860714174500,4.059174560546875,0.4557684063911438,0.5239542126655579,-2.930845260620117
1717003860723840000,4.068840087890625,0.6677324175834656,0.5752654075622559,-3.023082971572876
1717003860733505500,4.078505615234375,0.854040801525116,0.7682931423187256,-3.18190336227417
1717003860743171000,4.088171142578125,1.0409600734710693,0.6882721781730652,-3.1886227130889893
1717003860752836600,4.097836669921875,1.1619077920913696,0.5514423847198486,-3.127537965774536
1717003860762502100,4.107502197265625,1.0916603803634644,0.5092939138412476,-3.068896532058716
1717003860772167700,4.117167724609375,0.983540415763855,0.5013529062271118,-3.0004818439483643
1717003860781833200,4.126833251953125,0.7972320318222046,0.3633013963699341,-2.8764796257019043
1717003860791498800,4.136498779296875,0.7153785228729248,0.2527380585670471,-2.7359848022460938
1717003860801164300,4.146164306640625,0.7630245685577393,0.3694098889827728,-2.645503044128418
1717003860810829800,4.155829833984375,0.8332720398902893,0.4781406819820404,-2.5856401920318604
1717003860820495400,4.165495361328125,0.8570950627326965,0.6033644080162048,-2.4103269577026367
1717003860830161000,4.175160888671875,0.8925241827964783,0.5990884304046631,-2.281438112258911
1717003860839826400,4.184826416015625,0.9432245492935181,0.3339807391166687,-2.22951602935791
1717003860849492000,4.194491943359375,0.8955784440040588,-0.16752485930919647,-2.1262829303741455
1717003860859157500,4.204157470703125,0.794788658618927,-0.1119377613067627,-1.7744349241256714
1717003860868823000,4.213822998046875,0.5168531537055969,-0.1913478970527649,-1.5300960540771484
1717003860878488600,4.223488525390625,0.15645325183868408,-0.5224271416664124,-1.3786059617996216
1717003860888154000,4.233154052734375,-0.012140588834881783,-0.4020902216434479,-0.9687274098396301
1717003860897819600,4.242819580078125,-0.01763821393251419,-0.09177979826927185,-0.5808393955230713
1717003860907485400,4.2524853515625,0.06360447406768799,0.020616095513105392,-0.2772482931613922
1717003860917150700,4.262150634765625,0.12407834827899933,0.13545538485050201,0.14736689627170563
1717003860926816500,4.27181640625,0.06971294432878494,0.17088451981544495,0.4643966257572174
1717003860936482000,4.28148193359375,-0.0823880210518837,0.062153708189725876,0.7087355256080627
1717003860946147600,4.291147705078125,-0.26991814374923706,-0.30740886926651,0.80280601978302
1717003860955813000,4.300813232421875,-0.5296045541763306,-0.4546230733394623,0.9536852836608887
1717003860965478700,4.310478759765625,-0.7831062078475952,-0.4521796703338623,1.1931374073028564
1717003860975144200,4.320144287109375,-1.0066763162612915,-0.439351886510849,1.4228159189224243
1717003860984809700,4.329809814453125,-1.1257915496826172,-0.4912739098072052,1.6170654296875
1717003860994475300,4.339475341796875,-1.2106993198394775,-0.5890094637870789,1.8278076648712158
1717003861004140800,4.349140869140625,-1.3023263216018677,-0.5627430081367493,2.064816474914551
1717003861013806300,4.358806396484375,-1.378682255744934,-0.5499152541160583,2.2957167625427246
1717003861023471900,4.368471923828125,-1.3896775245666504,-0.6006155610084534,2.4783599376678467
1717003861033137400,4.378137451171875,-1.3444747924804688,-0.5938962697982788,2.6335153579711914
1717003861042803000,4.387802978515625,-1.296217918395996,-0.543195903301239,2.796077013015747
1717003861052468500,4.397468505859375,-1.2717839479446411,-0.5548020005226135,2.9481780529022217
1717003861062134000,4.407134033203125,-1.2284138202667236,-0.5938962697982788,3.0813426971435547
1717003861071799600,4.416799560546875,-1.138619303703308,-0.6158867478370667,3.232221841812134
1717003861081465000,4.426465087890625,-1.0304993391036987,-0.649483323097229,3.403259038925171
1717003861091130600,4.436130615234375,-0.9187142848968506,-0.7459971904754639,3.499162197113037
1717003861100796200,4.445796142578125,-0.8197570443153381,-0.8346464037895203,3.53092622756958
1717003861110461700,4.455461669921875,-0.7501204609870911,-0.8603020310401917,3.53092622756958
1717003861120127200,4.465127197265625,-0.7128587365150452,-0.7716528177261353,3.5052707195281982
1717003861129792800,4.474792724609375,-0.6774296164512634,-0.5731274485588074,3.50160551071167
1717003861139458300,4.484458251953125,-0.6261184215545654,-0.45828816294670105,3.4924428462982178
1717003861149123800,4.494123779296875,-0.5491516590118408,-0.5621321797370911,3.3934855461120605
1717003861158789400,4.503789306640625,-0.4306473135948181,-0.8254073858261108,3.2108423709869385
1717003861168455000,4.513454833984375,-0.24304085969924927,-1.0728768110275269,3.018425464630127
1717003861178120400,4.523120361328125,-0.009697199799120426,-1.2762889862060547,2.8834280967712402
1717003861187786000,4.532785888671875,0.21326205134391785,-1.4937505722045898,2.7832491397857666
1717003861197451500,4.542451416015625,0.39346200227737427,-1.653181791305542,2.691622018814087
1717003861207117000,4.552116943359375,0.5150206089019775,-1.6684529781341553,2.617633104324341
1717003861216782600,4.561782470703125,0.5901548266410828,-1.5010807514190674,2.61457896232605
1717003861226448100,4.5714482421875,0.6133670210838318,-1.3184374570846558,2.7050607204437256
1717003861236114000,4.581114013671875,0.5693860054016113,-1.3385953903198242,2.8205108642578125
1717003861245779200,4.590779296875,0.4569900929927826,-1.527347207069397,2.9219114780426025
1717003861255444700,4.60044482421875,0.3274904787540436,-1.7466413974761963,3.0178146362304688
1717003861265110500,4.610110595703125,0.19921256601810455,-1.9262304306030273,3.117382526397705
1717003861274776000,4.619776123046875,0.08620581775903702,-2.0453457832336426,3.22367000579834
1717003861284441600,4.629441650390625,-0.0426829531788826,-2.1314752101898193,3.3269033432006836
1717003861294107100,4.639107177734375,-0.18439951539039612,-2.2218804359436035,3.4362449645996094
1717003861303772700,4.648772705078125,-0.3303920030593872,-2.2829651832580566,3.5474190711975098
1717003861313438200,4.658438232421875,-0.4862344264984131,-2.2854087352752686,3.6677560806274414
1717003861323103700,4.668103759765625,-0.6548282504081726,-2.188283920288086,3.8076400756835938
1717003861332769300,4.677769287109375,-0.8301414251327515,-2.043513059616089,3.9725687503814697
1717003861342434800,4.687434814453125,-0.9736905097961426,-1.8584264516830444,4.163153171539307
1717003861352100400,4.697100341796875,-1.0726478099822998,-1.6379106044769287,4.3683977127075195
1717003861361766000,4.706765869140625,-1.0537115335464478,-1.3624184131622314,4.55470609664917
1717003861371431400,4.716431396484375,-0.9822424054145813,-0.9952992796897888,4.691535949707031
1717003861381097000,4.726096923828125,-0.9718579649925232,-0.46134239435195923,4.792325973510742
1717003861390762500,4.735762451171875,-1.0323318243026733,0.19654010236263275,4.898613452911377
1717003861400428000,4.745427978515625,-1.1099094152450562,0.8550334572792053,5.022615432739258
1717003861410093600,4.755093505859375,-1.1899304389953613,1.3577607870101929,5.153336524963379
1717003861419759000,4.764759033203125,-1.3536375761032104,1.5294088125228882,5.242520332336426
1717003861429424600,4.774424560546875,-1.5900354385375977,1.404185175895691,5.298717975616455
1717003861439090200,4.784090087890625,-1.900956630706787,1.029735803604126,5.276727676391602
1717003861448755700,4.793755615234375,-2.1850006580352783,0.5984776020050049,5.211367130279541
1717003861458421200,4.803421142578125,-2.357259511947632,0.16050012409687042,5.128902435302734
1717003861468086800,4.813086669921875,-2.4366698265075684,-0.35200074315071106,4.9987921714782715
1717003861477752300,4.82275244140625,-2.4366698265075684,-0.7624900937080383,4.802710056304932
1717003861487417900,4.83241796875,-2.3554270267486572,-0.8633562326431274,4.486902236938477
1717003861497083400,4.84208349609375,-2.2167646884918213,-0.7649334669113159,4.077023506164551
1717003861506749000,4.8517490234375,-2.0322887897491455,-0.6348230242729187,3.617055654525757
1717003861516414500,4.86141455078125,-1.84109365940094,-0.5010474920272827,3.125323534011841
1717003861526080000,4.871080078125,-1.6492875814437866,-0.3709369897842407,2.5846474170684814
1717003861535745500,4.88074560546875,-1.4385453462600708,-0.2585411071777344,2.0263330936431885
1717003861545411000,4.8904111328125,-1.2009257078170776,-0.2017323076725006,1.4906200170516968
1717003861555076600,4.90007666015625,-0.9009997248649597,-0.1901262104511261,1.0508099794387817
1717003861564742100,4.9097421875,-0.5253286361694336,-0.2530434727668762,0.752105712890625
1717003861574407700,4.91940771484375,-0.12942326068878174,-0.3849864900112152,0.5657972693443298
1717003861584073200,4.9290732421875,0.18760646879673004,-0.5267030596733093,0.44729289412498474
1717003861593738800,4.93873876953125,0.4203392565250397,-0.6421532034873962,0.37826716899871826
1717003861603404300,4.948404296875,0.5950415730476379,-0.6537593007087708,0.35383328795433044
1717003861613069800,4.95806982421875,0.7550835609436035,-0.5077667832374573,0.3752129375934601
1717003861622735400,4.9677353515625,0.9377269148826599,-0.2951919436454773,0.43385425209999084
1717003861632401200,4.977401123046875,1.1112074851989746,-0.1107160672545433,0.5187620520591736
1717003861642066700,4.987066650390625,1.1619077920913696,-0.03802524134516716,0.5456393361091614
1717003861651732200,4.996732177734375,0.9914814829826355,-0.20661908388137817,0.409420371055603
1717003861661397800,5.006397705078125,0.562666654586792,-0.9336037039756775,-0.0261137206107378
1717003861671063300,5.016063232421875,0.05566345527768135,-1.5994272232055664,-0.8850412964820862
1717003861680728800,5.025728759765625,-0.18501035869121552,-1.5053566694259644,-1.786651849746704
1717003861690394400,5.035394287109375,-0.12820157408714294,-0.9317711591720581,-2.32114315032959
1717003861700060000,5.045059814453125,0.023899398744106293,-0.2805316150188446,-2.515392541885376
1717003861709725400,5.054725341796875,0.15095563232898712,0.2716743052005768,-2.526387929916382
1717003861719391000,5.064390869140625,0.22547899186611176,0.6778877377510071,-2.4671356678009033
1717003861729056500,5.074056396484375,0.24075017869472504,0.9808679819107056,-2.3901689052581787
1717003861738722000,5.08372216796875,0.21326205134391785,1.2264286279678345,-2.3083155155181885
1717003861748387600,5.0933876953125,0.16378341615200043,1.4237322807312012,-2.2307379245758057
1717003861758053000,5.10305322265625,0.11919157207012177,1.612484097480774,-2.1525492668151855
1717003861767718700,5.11271875,0.10392039269208908,1.8134528398513794,-2.073139190673828
1717003861777384200,5.12238427734375,0.13873867690563202,2.07252836227417,-1.994339942932129
1717003861787049700,5.1320498046875,0.21020781993865967,2.4017751216888428,-1.9234817028045654
1717003861796715300,5.14171533203125,0.28839626908302307,2.763396739959717,-1.8666728734970093
1717003861806380800,5.151380859375,0.34581589698791504,3.140900135040283,-1.8355196714401245
1717003861816046300,5.16104638671875,0.3476484417915344,3.7181508541107178,-2.0994057655334473
1717003861825711900,5.1707119140625,0.3378748893737793,4.223932266235352,-3.1458632946014404
1717003861835377400,5.18037744140625,0.4295019805431366,2.92282772064209,-3.894151210784912
1717003861845043000,5.19004296875,0.5791595578193665,0.7786775231361389,-3.9161417484283447
1717003861854708500,5.19970849609375,0.7727981209754944,-0.7313368916511536,-3.506263256072998
1717003861864374000,5.2093740234375,0.9737668633460999,-0.9672002792358398,-3.098828077316284
1717003861874039600,5.21903955078125,1.132587194442749,-0.46989426016807556,-3.1024932861328125
1717003861883705000,5.228705078125,1.1313655376434326,0.0016798300202935934,-3.456173896789551
1717003861893370600,5.23837060546875,0.9145147204399109,0.29977330565452576,-3.819017171859741
1717003861903036200,5.2480361328125,0.5895439386367798,0.3205420970916748,-4.081070423126221
1717003861912702000,5.257701904296875,0.2957264184951782,0.16721943020820618,-4.255162239074707
1717003861922367200,5.2673671875,0.09109259396791458,0.10796725004911423,-4.354730129241943
1717003861932033000,5.277032958984375,-0.0683385357260704,0.2796153426170349,-4.4909491539001465
1717003861941698600,5.286698486328125,-0.14408360421657562,0.34070006012916565,-4.5660834312438965
1717003861951364000,5.296364013671875,-0.07139277458190918,-0.07528692483901978,-4.184914588928223
1717003861961029600,5.306029541015625,0.06788039952516556,-0.4656183123588562,-3.3865373134613037
1717003861970695200,5.315695068359375,0.14301460981369019,-0.22372281551361084,-2.679710626602173
1717003861980360700,5.325360595703125,0.011682453565299511,0.6473453640937805,-2.4934022426605225
1717003861990026200,5.335026123046875,-0.24853847920894623,1.7419836521148682,-2.8153951168060303
1717003861999691800,5.34469189453125,-0.4844018816947937,2.2386789321899414,-3.359049081802368
1717003862009357300,5.354357421875,-0.6383354067802429,1.6527999639511108,-3.768927574157715
1717003862019022800,5.36402294921875,-0.7067502737045288,0.4390464723110199,-3.807410955429077
1717003862028688400,5.3736884765625,-0.6200099587440491,-0.30007871985435486,-3.6919608116149902
1717003862038354000,5.38335400390625,-0.45385950803756714,-0.0331384651362896,-3.7597649097442627
1717003862048019500,5.39301953125,-0.357269287109375,0.7139277458190918,-3.8049676418304443
1717003862057685000,5.40268505859375,-0.334057092666626,1.150072693824768,-3.6492016315460205
1717003862067350500,5.4123505859375,-0.3077906668186188,1.076160192489624,-3.3969216346740723
1717003862077016000,5.42201611328125,-0.20700086653232574,0.8079982399940491,-3.2594809532165527
1717003862086681600,5.431681640625,-0.07322531193494797,0.7640172243118286,-3.4488437175750732
1717003862096347100,5.44134716796875,0.04161396995186806,0.9576557874679565,-3.803745985031128
1717003862106012700,5.4510126953125,0.11919157207012177,0.9332218766212463,-3.9558467864990234
1717003862115678200,5.46067822265625,0.20104511082172394,0.7151494026184082,-3.8746042251586914
1717003862125343700,5.47034375,0.22853323817253113,0.682774543762207,-3.673635482788086
1717003862135009300,5.48000927734375,0.1277434378862381,0.8892409205436707,-3.5135934352874756
1717003862144675000,5.489675048828125,-0.04085041210055351,1.0566130876541138,-3.4299073219299316
1717003862154340400,5.49934033203125,-0.13736428320407867,1.093263864517212,-3.2997968196868896
1717003862164006100,5.509006103515625,-0.12942326068878174,1.099372386932373,-3.0737833976745605
1717003862173671700,5.518671630859375,-0.05184566229581833,1.0987615585327148,-2.9485597610473633
1717003862183337200,5.528337158203125,0.056274302303791046,1.0321791172027588,-2.9412295818328857
1717003862193002800,5.538002685546875,0.16195088624954224,0.8635852932929993,-2.884420871734619
1717003862202668300,5.547668212890625,0.25235626101493835,0.8092198967933655,-2.814784049987793
1717003862212333800,5.557333740234375,0.322603702545166,0.9069554805755615,-2.7469801902770996
1717003862221999400,5.566999267578125,0.39590537548065186,1.0786035060882568,-2.5709798336029053
1717003862231665000,5.576664794921875,0.43561044335365295,1.1812258958816528,-2.3748977184295654
1717003862241330400,5.586330322265625,0.431334525346756,1.0773818492889404,-2.393834114074707
1717003862250996000,5.595995849609375,0.375747412443161,0.7371399402618408,-2.5776991844177246
1717003862260661500,5.60566162109375,0.34459421038627625,0.2551814317703247,-2.7439258098602295
1717003862270327000,5.6153271484375,0.35436776280403137,0.05787777900695801,-2.8196709156036377
1717003862279992600,5.62499267578125,0.4130091071128845,0.09941539168357849,-2.7579753398895264
1717003862289658000,5.634658203125,0.5553365349769592,0.021226942539215088,-2.6986467838287354
1717003862299323600,5.64432373046875,0.7789065837860107,-0.15591876208782196,-2.6235125064849854
1717003862308989200,5.6539892578125,0.9413920044898987,-0.3721587061882019,-2.498288869857788
1717003862318654700,5.66365478515625,1.0195804834365845,-0.20906247198581696,-2.116509437561035
1717003862328320300,5.6733203125,0.9487221240997314,-0.11560284346342087,-1.7872626781463623
1717003862337985800,5.68298583984375,0.8418238759040833,-0.011147962883114815,-1.468400478363037
1717003862347651600,5.692651611328125,0.8241093158721924,0.2533488869667053,-1.0438616275787354
1717003862357316900,5.70231689453125,0.7660788297653198,0.27411770820617676,-0.7359945774078369
1717003862366982700,5.711982666015625,0.6836144328117371,0.18371231853961945,-0.4763845205307007
1717003862376648200,5.721648193359375,0.5614449977874756,0.10063708573579788,-0.22043950855731964
1717003862386313700,5.731313720703125,0.4282802939414978,0.12751436233520508,0.04718795046210289
1717003862395979300,5.740979248046875,0.3128301501274109,0.08842013776302338,0.3507790267467499
1717003862405644800,5.750644775390625,0.1674485057592392,-0.04840964451432228,0.5877877473831177
1717003862415310300,5.760310302734375,0.035505495965480804,-0.18096350133419037,0.7459971904754639
1717003862424976000,5.769975830078125,-0.04023956134915352,-0.24876753985881805,0.9255862832069397
1717003862434641400,5.779641357421875,-0.07627955079078674,-0.36482852697372437,1.1008994579315186
1717003862444307000,5.789306884765625,-0.08788564801216125,-0.47172680497169495,1.2627739906311035
1717003862453972500,5.798972412109375,-0.1336991935968399,-0.6274928450584412,1.4301460981369019
1717003862463638000,5.808637939453125,-0.21921780705451965,-0.8554152250289917,1.5901881456375122
1717003862473303600,5.818303466796875,-0.34871742129325867,-0.9898016452789307,1.755727767944336
1717003862482969000,5.827968994140625,-0.499673068523407,-1.0808178186416626,1.8943901062011719
1717003862492634600,5.837634521484375,-0.6071822047233582,-1.2158150672912598,1.9970123767852783
1717003862502300200,5.847300048828125,-0.6713211536407471,-1.355088233947754,2.0965805053710938
1717003862511965700,5.856965576171875,-0.7104153633117676,-1.444882869720459,2.121014356613159
1717003862521631200,5.86663134765625,-0.7250757217407227,-1.5016915798187256,2.0721466541290283
1717003862531296800,5.876296875,-0.7049177289009094,-1.6464624404907227,2.024500608444214
1717003862540962600,5.885962646484375,-0.6297835111618042,-1.4296116828918457,1.8797297477722168
1717003862550628000,5.895628173828125,-0.5583143830299377,-1.0716551542282104,1.8394137620925903
1717003862560293600,5.905293701171875,-0.5986303091049194,-1.0264524221420288,2.0214462280273438
1717003862569959200,5.914959228515625,-0.6872031688690186,-1.0124030113220215,2.2260801792144775
1717003862579624700,5.924624755859375,-0.7348492741584778,-0.9427663683891296,2.2816672325134277
1717003862589290200,5.934290283203125,-0.7336275577545166,-0.8603020310401917,2.2841105461120605
1717003862598955800,5.943955810546875,-0.6981984376907349,-0.8211314082145691,2.2285234928131104
1717003862608621300,5.953621337890625,-0.6395570635795593,-0.9195541739463806,2.1918725967407227
1717003862618286800,5.963286865234375,-0.5851916670799255,-1.0887588262557983,2.2297451496124268
1717003862627952400,5.972952392578125,-0.5320479869842529,-1.162671446800232,2.21875
1717003862637618000,5.982617919921875,-0.4746283292770386,-1.1449568271636963,2.164384603500366
1717003862647283500,5.992283447265625,-0.39949411153793335,-1.0857046842575073,2.155221939086914
1717003862656949000,6.001948974609375,-0.31023404002189636,-1.0117921829223633,2.1069648265838623
1717003862666614500,6.011614501953125,-0.21799612045288086,-0.9507073760032654,2.051377773284912
1717003862676280000,6.021280029296875,-0.11903885751962662,-0.948874831199646,2.059929609298706
1717003862685945600,6.030945556640625,-0.050013117492198944,-1.013624668121338,2.1649954319000244
1717003862695611100,6.040611083984375,-0.030466007068753242,-1.116857886314392,2.302436113357544
1717003862705276700,6.050276611328125,-0.03290939703583717,-1.2371947765350342,2.3971173763275146
1717003862714942200,6.059942138671875,-0.05428905040025711,-1.3434821367263794,2.4307138919830322
1717003862724607700,6.069607666015625,-0.06528430432081223,-1.3813546895980835,2.4252164363861084
1717003862734273300,6.079273193359375,-0.06223006546497345,-1.2982795238494873,2.418497085571289
1717003862743939000,6.08893896484375,-0.05123481526970863,-1.1871052980422974,2.4087233543395996
1717003862753604600,6.0986044921875,-0.06284090876579285,-1.1736665964126587,2.3855111598968506
1717003862763270100,6.108270263671875,-0.10682191699743271,-1.3098856210708618,2.363520860671997
1717003862772935700,6.117935791015625,-0.16851748526096344,-1.5175737142562866,2.354968786239624
1717003862782601200,6.127601318359375,-0.24731677770614624,-1.7160990238189697,2.360466480255127
1717003862792266800,6.137266845703125,-0.3578801453113556,-1.8523179292678833,2.383678674697876
1717003862801932300,6.146932373046875,-0.48073679208755493,-1.9170677661895752,2.416053533554077
1717003862811597800,6.156597900390625,-0.6108472347259521,-1.8944664001464844,2.4582021236419678
1717003862821263400,6.166263427734375,-0.726908266544342,-1.790622353553772,2.5327253341674805
1717003862830929000,6.175928955078125,-0.8338065147399902,-1.6965519189834595,2.6304609775543213
1717003862840594400,6.185594482421875,-0.9596410393714905,-1.672118067741394,2.725829601287842
1717003862850260000,6.195260009765625,-1.096470832824707,-1.7014386653900146,2.8144023418426514
1717003862859925500,6.204925537109375,-1.2015365362167358,-1.768631935119629,2.9274091720581055
1717003862869591000,6.214591064453125,-1.2326897382736206,-1.8199430704116821,3.0495786666870117
1717003862879256600,6.224256591796875,-1.2516260147094727,-1.758858323097229,3.1650288105010986
1717003862888922000,6.233922119140625,-1.2913310527801514,-1.5499485731124878,3.2609317302703857
1717003862898587600,6.243587646484375,-1.3157650232315063,-1.2188693284988403,3.304912805557251
1717003862908253200,6.253253173828125,-1.345085620880127,-0.8535826802253723,3.302469253540039
1717003862917919000,6.2629189453125,-1.3805148601531982,-0.5285356044769287,3.2865872383117676
1717003862927584300,6.272584228515625,-1.40617036819458,-0.28786176443099976,3.2768137454986572
1717003862937250000,6.28225,-1.4122788906097412,-0.18401773273944855,3.2896416187286377
1717003862946915600,6.29191552734375,-1.3976185321807861,-0.1901262104511261,3.3525588512420654
1717003862956581000,6.3015810546875,-1.3566917181015015,-0.2298312783241272,3.4692306518554688
1717003862966246700,6.31124658203125,-1.2613996267318726,-0.23532891273498535,3.6158339977264404
1717003862975912200,6.320912109375,-1.2027583122253418,-0.1754658818244934,3.7807626724243164
1717003862985577700,6.33057763671875,-1.2247487306594849,-0.03924693539738655,3.949967384338379
1717003862995243300,6.3402431640625,-1.290109395980835,0.0261137206107378,4.051979064941406
1717003863004908800,6.34990869140625,-1.3713520765304565,-0.011147962883114815,4.070915222167969
1717003863014574300,6.35957421875,-1.4470971822738647,-0.18523943424224854,3.9316420555114746
1717003863024239900,6.369239990234375,-1.4550381898880005,-0.4399627447128296,3.5877349376678467
1717003863033905400,6.378905517578125,-1.4489296674728394,-0.7313368916511536,3.1265454292297363
1717003863043571000,6.388571044921875,-1.4269392490386963,-0.976973831653595,2.6255741119384766
1717003863053236500,6.398236572265625,-1.2980504035949707,-1.152897834777832,2.152167558670044
1717003863062902000,6.407902099609375,-1.111131191253662,-1.2903385162353516,1.7447324991226196
1717003863072567600,6.417567626953125,-0.9290986657142639,-1.4906964302062988,1.4484715461730957
1717003863082233000,6.427233154296875,-0.7647807598114014,-1.8394901752471924,1.2688825130462646
1717003863091898600,6.436898681640625,-0.6084038615226746,-2.202944278717041,1.2218471765518188
1717003863101564200,6.446564208984375,-0.4318690001964569,-2.5028703212738037,1.2560546398162842
1717003863111230000,6.45622998046875,-0.28274592757225037,-2.6122119426727295,1.2847645282745361
1717003863120895500,6.4658955078125,-0.2112767994403839,-2.439953088760376,1.2523895502090454
1717003863130561000,6.47556103515625,-0.20516832172870636,-2.017246723175049,1.1680927276611328
1717003863140226600,6.4852265625,-0.23204560577869415,-1.4705383777618408,1.089293360710144
1717003863149892000,6.49489208984375,-0.27297237515449524,-0.9299386143684387,1.066081166267395
1717003863159557600,6.5045576171875,-0.3328354060649872,-0.47539186477661133,1.1088404655456543
1717003863169223200,6.51422314453125,-0.4300364851951599,-0.1382041871547699,1.190693974494934
1717003863178888700,6.523888671875,-0.5393781065940857,0.10674555599689484,1.2670499086380005
1717003863188554200,6.53355419921875,-0.6145123243331909,0.28755635023117065,1.3098092079162598
1717003863198219800,6.5432197265625,-0.6328377723693848,0.4274403750896454,1.3195828199386597
1717003863207885300,6.55288525390625,-0.6065713167190552,0.5422796607017517,1.2945380210876465
1717003863217550800,6.56255078125,-0.5540384650230408,0.6754443645477295,1.2346750497817993
1717003863227216400,6.57221630859375,-0.4837910234928131,0.8183826208114624,1.1424371004104614
1717003863236882000,6.5818818359375,-0.4172086715698242,0.9515473246574402,1.028208613395691
1717003863246547500,6.59154736328125,-0.37506023049354553,1.1244170665740967,0.9121476411819458
1717003863256213000,6.601212890625,-0.37200596928596497,1.353484869003296,0.8034168481826782
1717003863265878500,6.61087841796875,-0.4037700295448303,1.583774209022522,0.7001836895942688
1717003863275544000,6.6205439453125,-0.4453076422214508,1.7389293909072876,0.5981721878051758
1717003863285209900,6.6302099609375,-0.4581354558467865,1.8012359142303467,0.5138752460479736
1717003863294875100,6.639875244140625,-0.4587462842464447,1.7786345481872559,0.44607120752334595
1717003863304541000,6.649541015625,-0.46302223205566406,1.6986135244369507,0.386208176612854
1717003863314206500,6.65920654296875,-0.4563029110431671,1.617370843887329,0.33001023530960083
1717003863323872000,6.6688720703125,-0.4355340898036957,1.5715572834014893,0.26342788338661194
1717003863333537500,6.67853759765625,-0.416597843170166,1.5740007162094116,0.1754658818244934
1717003863343203000,6.688203125,-0.4080459773540497,1.6179816722869873,0.05757235363125801
1717003863352868600,6.69786865234375,-0.41048935055732727,1.6784555912017822,-0.08971819281578064
1717003863362534100,6.7075341796875,-0.4062134325504303,1.7438162565231323,-0.25770118832588196
1717003863372199700,6.71719970703125,-0.37200596928596497,1.797570824623108,-0.42690587043762207
1717003863381865200,6.726865234375,-0.29557371139526367,1.8128420114517212,-0.5796176791191101
1717003863391530800,6.73653076171875,-0.1880646049976349,1.7554223537445068,-0.7091172933578491
1717003863401196300,6.7461962890625,-0.06772769242525101,1.644248127937317,-0.8092962503433228
1717003863410861800,6.75586181640625,0.022677704691886902,1.4671024084091187,-0.8954257369041443
1717003863420527400,6.76552734375,0.07765395939350128,1.2374237775802612,-0.9803335070610046
1717003863430193000,6.77519287109375,0.11063970625400543,1.005301833152771,-1.0579110383987427
1717003863439858400,6.7848583984375,0.1393495351076126,0.7896727919578552,-1.12082839012146
1717003863449524200,6.794524169921875,0.17050273716449738,0.5984776020050049,-1.175804615020752
1717003863459189800,6.804189697265625,0.193104088306427,0.4372139275074005,-1.226504921913147
1717003863468855300,6.813855224609375,0.20348849892616272,0.3064926266670227,-1.272929310798645
1717003863478520800,6.823520751953125,0.20837527513504028,0.21058958768844604,-1.314466953277588
1717003863488186400,6.833186279296875,0.20409934222698212,0.1525591015815735,-1.3541719913482666
1717003863497852000,6.842851806640625,0.2205922156572342,0.1751604527235031,-1.3779950141906738
1717003863507517400,6.852517333984375,0.2578538954257965,0.2802261710166931,-1.3779950141906738
1717003863517183000,6.862182861328125,0.3012240529060364,0.448820024728775,-1.3615021705627441
1717003863526848500,6.8718486328125,0.32871219515800476,0.6552863717079163,-1.3389008045196533
1717003863536514000,6.88151416015625,0.3378748893737793,0.8855758309364319,-1.3126343488693237
1717003863546179600,6.8911796875,0.31954947113990784,1.1176977157592773,-1.2888113260269165
1717003863555845000,6.90084521484375,0.28106608986854553,1.333326816558838,-1.2747619152069092
1717003863565510700,6.9105107421875,0.24869118630886078,1.5397932529449463,-1.2631558179855347
1717003863575176200,6.92017626953125,0.22731153666973114,1.724269151687622,-1.2558256387710571
1717003863584841700,6.929841796875,0.23464170098304749,1.870337963104248,-1.2564364671707153
1717003863594507300,6.93950732421875,0.26579490303993225,2.1433866024017334,-1.390212059020996
1717003863604172800,6.9491728515625,0.1143047958612442,3.788398265838623,-2.57281231880188
1717003863613838600,6.958838623046875,-0.09704835712909698,5.084692478179932,-3.752434730529785
1717003863623504100,6.968504150390625,-0.10498937219381332,4.411462783813477,-4.112834453582764
1717003863633169700,6.978169677734375,-0.004810422193259001,2.624734401702881,-3.9179742336273193
1717003863642835200,6.987835205078125,0.12346750497817993,0.8385405540466309,-3.448232889175415
1717003863652500700,6.997500732421875,0.10941801220178604,-0.5541911721229553,-2.8068430423736572
1717003863662166300,7.007166259765625,-0.1080436110496521,-1.0356152057647705,-2.1733181476593018
1717003863671831800,7.016831787109375,-0.4367557764053345,-0.5346440672874451,-1.8752247095108032
1717003863681497300,7.026497314453125,-0.6774296164512634,0.32848310470581055,-1.9619650840759277
1717003863691163000,7.036162841796875,-0.7372926473617554,0.8519791960716248,-2.2570042610168457
1717003863700828400,7.045828369140625,-0.6957550048828125,0.839762270450592,-2.701777458190918
1717003863710494000,7.055493896484375,-0.629172682762146,0.49707695841789246,-3.1928985118865967
1717003863720159500,7.065159423828125,-0.5387672781944275,0.16783028841018677,-3.612550735473633
1717003863729825000,7.074824951171875,-0.3775036036968231,-0.10888352245092392,-3.882545232772827
1717003863739490600,7.084490478515625,-0.14041851460933685,-0.4503471553325653,-4.087179183959961
1717003863749156400,7.09415625,0.08009734749794006,-0.7368345260620117,-4.317468643188477
1717003863758822000,7.10382177734375,0.18516308069229126,-0.8920660614967346,-4.46040678024292
1717003863768487400,7.1134873046875,0.14851224422454834,-0.9733087420463562,-4.390769958496094
1717003863778153000,7.123153076171875,0.008017370477318764,-0.779593825340271,-4.272265911102295
1717003863787818500,7.132818603515625,-0.13247749209403992,0.03771981969475746,-4.283871650695801
1717003863797484000,7.142484130859375,-0.2515927255153656,0.7536327838897705,-4.326020240783691
1717003863807149600,7.152149658203125,-0.38422292470932007,0.7908945083618164,-3.985778331756592
1717003863816815000,7.161815185546875,-0.5106683373451233,0.7499676942825317,-3.305905342102051
1717003863826480600,7.171480712890625,-0.6132906675338745,0.9918632507324219,-2.697425127029419
1717003863836146200,7.181146240234375,-0.7159129977226257,1.4964231252670288,-2.4964563846588135
1717003863845811700,7.190811767578125,-0.8252546191215515,1.7804670333862305,-2.5722014904022217
1717003863855477200,7.200477294921875,-0.8472451567649841,1.5507885217666626,-2.6729912757873535
1717003863865142800,7.210142822265625,-0.6829272508621216,1.1989405155181885,-2.8764796257019043
1717003863874808300,7.219808349609375,-0.395218163728714,0.9344435930252075,-3.150750160217285
1717003863884473900,7.229473876953125,-0.09827005118131638,0.6241331696510315,-3.387148141860962
1717003863894139600,7.2391396484375,0.1295759677886963,0.5050179958343506,-3.6412606239318848
1717003863903805200,7.24880517578125,0.22853323817253113,0.5001311898231506,-3.9112548828125
1717003863913470700,7.258470703125,0.24319356679916382,0.372464120388031,-4.031591892242432
1717003863923136300,7.26813623046875,0.19066070020198822,0.2539597451686859,-3.933856248855591
1717003863932801800,7.2778017578125,0.10880716890096664,0.3859027624130249,-3.8202388286590576
1717003863942467300,7.28746728515625,0.0745997205376625,0.5508314967155457,-3.6754679679870605
1717003863952132900,7.2971328125,0.1668376624584198,0.5716003179550171,-3.4732775688171387
1717003863961798400,7.30679833984375,0.39529454708099365,0.5172349214553833,-3.355994939804077
1717003863971464000,7.3164638671875,0.6677324175834656,0.3852919042110443,-3.3688225746154785
1717003863981129500,7.32612939453125,0.9230665564537048,0.04749337583780289,-3.352940559387207
1717003863990795000,7.335794921875,1.072113275527954,-0.1644706279039383,-3.366990089416504
1717003864000460500,7.34546044921875,1.0458468198776245,-0.1363716572523117,-3.2319929599761963
1717003864010126000,7.3551259765625,0.9621607661247253,0.10124793648719788,-2.971161127090454
1717003864019791600,7.36479150390625,1.0140827894210815,0.31443363428115845,-2.8367745876312256
1717003864029457400,7.37445751953125,1.2089431285858154,0.0975828468799591,-2.7982912063598633
1717003864039123000,7.384123046875,1.428848147392273,-0.027029991149902344,-2.7378175258636475
1717003864048788500,7.39378857421875,1.501538872718811,0.14889401197433472,-2.5050082206726074
1717003864058454000,7.4034541015625,1.4264047145843506,0.4940227270126343,-2.182480812072754
1717003864068119600,7.41311962890625,1.271249532699585,0.6418477296829224,-1.933866024017334
1717003864077785000,7.42278515625,1.0886061191558838,0.47203221917152405,-1.82391357421875
1717003864087450600,7.43245068359375,0.9224557280540466,0.3345915973186493,-1.7726024389266968
1717003864097116200,7.4421162109375,0.7721872925758362,0.3309265077114105,-1.7041875123977661
1717003864106781700,7.45178173828125,0.6530720591545105,0.37857258319854736,-1.5893481969833374
1717003864116447200,7.461447265625,0.5376219153404236,0.3443651497364044,-1.50993812084198
1717003864126112800,7.47111279296875,0.41056570410728455,0.37002071738243103,-1.4256411790847778
1717003864135778600,7.480778564453125,0.2309766262769699,0.5654918551445007,-1.2246724367141724
1717003864145443800,7.49044384765625,0.06055023521184921,0.6345176100730896,-1.0047674179077148
1717003864155109600,7.500109619140625,-0.012751436792314053,0.5422796607017517,-0.8636616468429565
1717003864164775200,7.509775146484375,-0.0952158197760582,0.5465555787086487,-0.667579710483551
1717003864174440700,7.519440673828125,-0.22166119515895844,0.6137487888336182,-0.357269287109375
1717003864184106200,7.529106201171875,-0.3169533610343933,0.6027535200119019,-0.06345175951719284
1717003864193771800,7.538771728515625,-0.38727715611457825,0.5074613690376282,0.19806721806526184
1717003864203437300,7.548437255859375,-0.4960079789161682,0.34314343333244324,0.4540122151374817
1717003864213102800,7.558102783203125,-0.605960488319397,0.2564031481742859,0.681858241558075
1717003864222768400,7.567768310546875,-0.6468872427940369,0.1892099380493164,0.9225320816040039
1717003864232434000,7.577433837890625,-0.6169557571411133,0.09941539168357849,1.1974133253097534
1717003864242099700,7.587099609375,-0.569309651851654,-0.058183200657367706,1.4246485233306885
1717003864251765000,7.596764892578125,-0.5607577562332153,-0.3067980408668518,1.608513593673706
1717003864261430800,7.6064306640625,-0.5632011890411377,-0.6897992491722107,1.7160226106643677
1717003864271096300,7.616096435546875,-0.518609344959259,-0.9061155319213867,1.7997087240219116
1717003864280761900,7.625761962890625,-0.4471401870250702,-1.0252307653427124,1.8925575017929077
1717003864290427400,7.635427490234375,-0.4062134325504303,-1.2316970825195312,1.903552770614624
1717003864300093000,7.645093017578125,-0.3946073353290558,-1.4705383777618408,1.8870599269866943
1717003864309758500,7.654758544921875,-0.4190412163734436,-1.5688848495483398,1.913326382637024
1717003864319424000,7.664424072265625,-0.4086568057537079,-1.5688848495483398,1.9573073387145996
1717003864329089500,7.674089599609375,-0.36521029472351074,-1.490085482597351,1.9420361518859863
1717003864338755000,7.683755126953125,-0.32672691345214844,-1.5139086246490479,1.838192105293274
1717003864348420600,7.693420654296875,-0.28702184557914734,-1.565219759941101,1.8052064180374146
1717003864358086100,7.703086181640625,-0.3035147190093994,-1.5389533042907715,1.745954155921936
1717003864367752000,7.712751953125,-0.4086568057537079,-1.4632081985473633,1.7856591939926147
1717003864377417500,7.72241748046875,-0.5632011890411377,-1.4125078916549683,1.9212673902511597
1717003864387083000,7.7320830078125,-0.679872989654541,-1.2836191654205322,1.9658591747283936
1717003864396748500,7.74174853515625,-0.7623373866081238,-1.1241880655288696,1.9945690631866455
1717003864406414000,7.7514140625,-0.8790091872215271,-1.1083060503005981,2.1362855434417725
1717003864416079600,7.76107958984375,-0.9681929349899292,-1.1449568271636963,2.204700469970703
1717003864425745200,7.7707451171875,-0.9822424054145813,-1.064324975013733,2.2315776348114014
1717003864435410700,7.78041064453125,-0.9571976661682129,-0.8877901434898376,2.1857643127441406
1717003864445076200,7.790076171875,-0.8655705451965332,-0.7698202729225159,1.9964015483856201
1717003864454741800,7.79974169921875,-0.7061394453048706,-0.6659762263298035,1.7960436344146729
1717003864464407300,7.8094072265625,-0.5705313682556152,-0.7692093849182129,1.659213900566101
1717003864474072800,7.81907275390625,-0.5509842038154602,-1.1406809091567993,1.7007514238357544
1717003864483738400,7.82873828125,-0.5528167486190796,-1.4992482662200928,1.844300627708435
1717003864493404000,7.83840380859375,-0.5858024954795837,-1.6018705368041992,1.9518096446990967
1717003864503069700,7.848069580078125,-0.6273401379585266,-1.5236821174621582,1.9884605407714844
1717003864512735200,7.8577353515625,-0.6627692580223083,-1.4265574216842651,2.039771795272827
1717003864522400800,7.86740087890625,-0.6988092660903931,-1.4399960041046143,2.0953588485717773
1717003864532066300,7.87706640625,-0.7134696245193481,-1.5163519382476807,2.0782551765441895
1717003864541731800,7.88673193359375,-0.6988092660903931,-1.6880000829696655,1.982962965965271
1717003864551397400,7.8963974609375,-0.6639909744262695,-1.8938555717468262,1.876064658164978
1717003864561063000,7.90606298828125,-0.6377245187759399,-2.0624494552612305,1.788102626800537
1717003864570728400,7.915728515625,-0.6157340407371521,-2.1614067554473877,1.7709989547729492
1717003864580394000,7.92539404296875,-0.5992411375045776,-2.2915170192718506,1.8070389032363892
1717003864590059500,7.9350595703125,-0.5699204802513123,-2.430790424346924,1.8943901062011719
1717003864599725000,7.94472509765625,-0.5577035546302795,-2.5022594928741455,2.0287764072418213
1717003864609390800,7.954390869140625,-0.5656445622444153,-2.460721731185913,2.2028679847717285
1717003864619056400,7.964056396484375,-0.5900784730911255,-2.3721489906311035,2.394674062728882
1717003864628722000,7.973721923828125,-0.6151232123374939,-2.2279889583587646,2.5907559394836426
1717003864638387500,7.983387451171875,-0.6762079000473022,-2.0948243141174316,2.7881360054016113
1717003864648053000,7.993052978515625,-0.6920899152755737,-2.084439992904663,2.9732227325439453
1717003864657718500,8.002718505859375,-0.7342383861541748,-2.083829164505005,3.169304609298706
1717003864667384000,8.012384033203125,-0.7898254990577698,-2.014192581176758,3.380657911300659
1717003864677049600,8.022049560546876,-0.8918370008468628,-1.7814596891403198,3.579793930053711
1717003864686715100,8.031715087890625,-1.0274450778961182,-1.4357200860977173,3.75022029876709
1717003864696380700,8.041380615234376,-1.192984700202942,-1.0686008930206299,3.886439323425293
1717003864706046200,8.051046142578125,-1.378682255744934,-0.7142331600189209,4.006165504455566
1717003864715711700,8.060711669921876,-1.5704883337020874,-0.35627666115760803,4.116728782653809
1717003864725377300,8.070377197265625,-1.7818413972854614,0.014507622458040714,4.190030574798584
1717003864735043000,8.08004296875,-2.0237369537353516,0.3596363365650177,4.215685844421387
1717003864744708600,8.08970849609375,-2.2173755168914795,0.7230904698371887,4.250504493713379
1717003864754374100,8.0993740234375,-2.2980074882507324,1.0523371696472168,4.375117301940918
1717003864764039700,8.109039794921875,-2.332214832305908,1.2203201055526733,4.609682559967041
1717003864773705200,8.118705322265624,-2.3786392211914062,1.246586561203003,4.874790191650391
1717003864783370800,8.128370849609375,-2.427506923675537,1.2154333591461182,5.089197635650635
1717003864793036300,8.138036376953124,-2.3438210487365723,1.1842801570892334,5.093473434448242
1717003864802701800,8.147701904296875,-2.160566806793213,1.143964171409607,4.791715145111084
1717003864812367400,8.157367431640624,-1.8759119510650635,1.0816577672958374,4.227902889251709
1717003864822033000,8.167032958984375,-1.5179554224014282,0.9558232426643372,3.571852922439575
1717003864831698400,8.176698486328124,-1.1893196105957031,0.682774543762207,3.030031442642212
1717003864841364200,8.1863642578125,-0.938872218132019,0.2777827978134155,2.6494736671447754
1717003864851029800,8.19602978515625,-0.7568397521972656,-0.24815669655799866,2.371461868286133
1717003864860695300,8.2056953125,-0.633448600769043,-0.8486959338188171,2.1564435958862305
1717003864870360800,8.21536083984375,-0.5534276366233826,-1.443661093711853,1.9707459211349487
1717003864880026400,8.2250263671875,-0.5253286361694336,-1.9922019243240356,1.7752748727798462
1717003864889692000,8.23469189453125,-0.5351021885871887,-2.388641834259033,1.5645325183868408
1717003864899357400,8.244357421875,-0.5674771070480347,-2.5517380237579346,1.3427950143814087
1717003864909023000,8.25402294921875,-0.6175665855407715,-2.4943184852600098,1.139993667602539
1717003864918688500,8.2636884765625,-0.6340594291687012,-2.2890737056732178,1.011104941368103
1717003864928354000,8.27335400390625,-0.5919110178947449,-2.0111382007598877,0.9713998436927795
1717003864938019600,8.28301953125,-0.49051034450531006,-1.702660322189331,0.996444582939148
1717003864947685000,8.29268505859375,-0.36582115292549133,-1.3453147411346436,1.042868971824646
1717003864957350700,8.3023505859375,-0.2760266065597534,-0.9146674275398254,1.0966235399246216
1717003864967016400,8.312016357421875,-0.22288289666175842,-0.44790375232696533,1.1522105932235718
1717003864976682000,8.321681884765624,-0.16546325385570526,0.025502873584628105,1.2126845121383667
1717003864986347500,8.331347412109375,-0.12636902928352356,0.4799732267856598,1.2847645282745361
1717003864996013000,8.341012939453124,-0.12942326068878174,0.8977927565574646,1.348292589187622
1717003865005678600,8.3506787109375,-0.1593547761440277,1.2667444944381714,1.3910518884658813
1717003865015344000,8.36034423828125,-0.1996707022190094,1.5630054473876953,1.3977712392807007
1717003865025009700,8.370009765625,-0.24792763590812683,1.7743586301803589,1.3427950143814087
1717003865034675200,8.37967529296875,-0.31023404002189636,1.911875605583191,1.2297883033752441
1717003865044340700,8.3893408203125,-0.4062134325504303,1.9265358448028564,1.052642583847046
1717003865054006300,8.39900634765625,-0.5344913601875305,1.836741328239441,0.8376243114471436
1717003865063671800,8.408671875,-0.6548282504081726,1.6680711507797241,0.6439857482910156
1717003865073337600,8.418337646484375,-0.712247908115387,1.4787085056304932,0.4894413650035858
1717003865083003100,8.428003173828126,-0.6719319820404053,1.2960652112960815,0.362995982170105
1717003865092668700,8.437668701171875,-0.5619794726371765,1.1048699617385864,0.254265159368515
1717003865102334200,8.447334228515626,-0.4434750974178314,0.8984035849571228,0.13514995574951172
1717003865111999700,8.456999755859375,-0.34016555547714233,0.705986738204956,-0.011453386396169662
1717003865121665300,8.466665283203126,-0.2528144121170044,0.5404471158981323,-0.1721825748682022
1717003865131330800,8.476330810546875,-0.1727934181690216,0.399952232837677,-0.3334462344646454
1717003865140996400,8.485996337890626,-0.10315682739019394,0.2826695740222931,-0.48371466994285583
1717003865150662000,8.495661865234375,-0.05306735634803772,0.1916533261537552,-0.6058841347694397
1717003865160327400,8.505327392578126,-0.034131091088056564,0.12018419802188873,-0.6920135617256165
1717003865169993000,8.514992919921875,-0.03962871432304382,0.05482354015111923,-0.7414922118186951
1717003865179658800,8.52465869140625,-0.04695888236165047,-0.0007635590736754239,-0.7537091374397278
1717003865189324300,8.53432421875,-0.04634803533554077,-0.03924693539738655,-0.7378271222114563
1717003865198989800,8.54398974609375,-0.036574479192495346,-0.05024218559265137,-0.7115607261657715
1717003865208655400,8.5536552734375,-0.024968381971120834,-0.025808297097682953,-0.6956786513328552
1717003865218321000,8.56332080078125,-0.010918894782662392,0.034665580838918686,-0.7005654573440552
1717003865227986400,8.572986328125,0.0067956759594380856,0.12812520563602448,-0.727442741394043
1717003865237652000,8.58265185546875,0.03367295488715172,0.2429644912481308,-0.7732563018798828
1717003865247317500,8.5923173828125,0.06665870547294617,0.3455868363380432,-0.8263999819755554
1717003865256983000,8.601983154296875,0.1008661538362503,0.425607830286026,-0.8764894604682922
1717003865266648600,8.611648681640625,0.12530004978179932,0.5129590034484863,-0.9155836701393127
1717003865276314000,8.621314208984375,0.1393495351076126,0.61313796043396,-0.9345199465751648
1717003865285980000,8.63097998046875,0.14790138602256775,0.718814492225647,-0.9302440285682678
1717003865295645400,8.6406455078125,0.14484715461730957,0.8263236284255981,-0.912529468536377
1717003865305311000,8.65031103515625,0.13629528880119324,0.9558232426643372,-0.8880955576896667
1717003865314976500,8.6599765625,0.12530004978179932,1.0944855213165283,-0.8685484528541565
1717003865324642000,8.66964208984375,0.09964445978403091,1.2154333591461182,-0.8630508184432983
1717003865334307600,8.6793076171875,0.07765395939350128,1.3284400701522827,-0.8593857288360596
1717003865343973000,8.68897314453125,0.06604786217212677,1.4054068326950073,-0.8544989824295044
1717003865353638700,8.698638671875,0.06726955622434616,1.4267865419387817,-0.8502230048179626
1717003865363304200,8.70830419921875,0.08254073560237885,1.3889139890670776,-0.8435037136077881
1717003865372969700,8.7179697265625,0.10758547484874725,1.3223315477371216,-0.8306758999824524
1717003865382635300,8.72763525390625,0.1417929232120514,1.2746855020523071,-0.8099071383476257
1717003865392301000,8.737301025390625,0.17783290147781372,1.2691879272460938,-0.7818081378936768
1717003865401966600,8.746966552734374,0.2205922156572342,1.284459114074707,-0.7530983090400696
1717003865411632000,8.756632080078125,0.2725142240524292,1.2826265096664429,-0.7347729206085205
1717003865421297700,8.766297607421874,0.3213820159435272,1.2154333591461182,-0.7201125621795654
1717003865430963200,8.775963134765625,0.35681116580963135,1.029735803604126,-0.7091172933578491
1717003865440628700,8.785628662109374,0.37086063623428345,0.6668924689292908,-0.72683185338974
1717003865450294300,8.795294189453125,0.12407834827899933,-0.42224815487861633,-2.1323914527893066
1717003865459959800,8.804959716796875,-0.5051707029342651,-1.1632822751998901,-4.858679294586182
1717003865469625300,8.814625244140625,-0.7678350210189819,-0.5004366040229797,-6.228885650634766
1717003865479291000,8.824290771484375,-0.7379034757614136,0.974148690700531,-6.484830856323242
1717003865488956400,8.833956298828125,-0.4844018816947937,1.9137080907821655,-6.059680938720703
1717003865498622200,8.843622314453125,-0.10437852889299393,2.1586577892303467,-5.072475433349609
1717003865508287700,8.853287841796876,0.2596864402294159,2.1733181476593018,-3.8831560611724854
1717003865517953300,8.862953369140625,0.3745257258415222,1.5367389917373657,-2.7640838623046875
1717003865527618800,8.872618896484376,0.2584647536277771,0.42194274067878723,-1.93508780002594
1717003865537284400,8.882284423828125,0.13812783360481262,-0.5505260825157166,-1.4793957471847534
1717003865546950000,8.891949951171876,0.16256172955036163,-0.7533273696899414,-1.5282634496688843
1717003865556615400,8.901615478515625,0.33115556836128235,-0.15836215019226074,-1.999226689338684
1717003865566281000,8.911281005859376,0.48875415325164795,0.9093988537788391,-2.6845972537994385
1717003865575946500,8.920946533203125,0.4973060190677643,1.7218257188796997,-3.2209975719451904
1717003865585612000,8.930612060546874,0.3244362473487854,1.7523680925369263,-3.315678834915161
1717003865595277800,8.94027783203125,0.06788039952516556,1.0291249752044678,-3.150139331817627
1717003865604943400,8.949943359375,-0.08483141660690308,0.24662958085536957,-3.260091781616211
1717003865614609000,8.95960888671875,-0.06345175951719284,-0.25976279377937317,-3.9210286140441895
1717003865624274400,8.9692744140625,0.008017370477318764,-0.866410493850708,-4.647936820983887
1717003865633940000,8.97893994140625,0.08131904155015945,-1.6348563432693481,-5.09141206741333
1717003865643605500,8.98860546875,0.14851224422454834,-2.278689384460449,-5.211137771606445
1717003865653271000,8.99827099609375,0.16317257285118103,-2.260974884033203,-5.115845680236816
1717003865662936600,9.0079365234375,0.10269869863986969,-1.3495906591415405,-4.9454193115234375
1717003865672602000,9.01760205078125,-0.05184566229581833,-0.09361234307289124,-4.745672225952148
1717003865682267600,9.027267578125,-0.24670593440532684,0.6339067220687866,-4.600290775299072
1717003865691933400,9.036933349609376,-0.3316137194633484,0.48424917459487915,-4.384661674499512
1717003865701599000,9.046598876953125,-0.2894652485847473,0.02244863659143448,-4.1006178855896
1717003865711264500,9.056264404296876,-0.18134528398513794,-0.22616620361804962,-4.008379936218262
1717003865720930000,9.065929931640625,0.008017370477318764,-0.07834116369485855,-4.248442649841309
1717003865730595600,9.075595703125,0.1808871477842331,0.1250709742307663,-4.651601791381836
1717003865740261000,9.08526123046875,0.23036576807498932,0.17943638563156128,-4.805535316467285
1717003865749926700,9.0949267578125,0.19676917791366577,0.1751604527235031,-4.557531356811523
1717003865759592200,9.10459228515625,0.15095563232898712,0.12995775043964386,-4.027926921844482
1717003865769257700,9.1142578125,0.1680593490600586,0.14828316867351532,-3.5514659881591797
1717003865778923300,9.12392333984375,0.31710609793663025,0.47142136096954346,-3.1495285034179688
1717003865788589000,9.133589111328124,0.5180748105049133,0.9124531149864197,-2.7518668174743652
1717003865798254600,9.143254638671875,0.6494069695472717,1.1244170665740967,-2.4695792198181152
1717003865807920000,9.152920166015624,0.6445202231407166,1.1885560750961304,-2.333360195159912
1717003865817585700,9.162585693359375,0.5199073553085327,1.057223916053772,-2.4091053009033203
1717003865827251200,9.172251220703124,0.42156097292900085,0.7010999321937561,-2.666271924972534
1717003865836916700,9.181916748046875,0.3897969126701355,0.32787227630615234,-2.7756898403167725
1717003865846582300,9.191582275390624,0.3629196286201477,0.3962871730327606,-2.7378175258636475
1717003865856247800,9.201247802734375,0.3500918447971344,0.6345176100730896,-2.671158790588379
1717003865865913600,9.21091357421875,0.35803285241127014,0.8849649429321289,-2.581364154815674
1717003865875579100,9.2205791015625,0.3867426812648773,1.1537377834320068,-2.4848504066467285
1717003865885244700,9.23024462890625,0.48814332485198975,1.1836693286895752,-2.506229877471924
1717003865894910200,9.23991015625,0.6634564995765686,0.848314106464386,-2.5569303035736084
1717003865904575700,9.24957568359375,0.8021187782287598,0.3370349705219269,-2.5318856239318848
1717003865914241300,9.2592412109375,0.7697439193725586,-0.11987877637147903,-2.5282204151153564
1717003865923906800,9.26890673828125,0.6347466707229614,-0.388651579618454,-2.535550594329834
1717003865933572400,9.278572265625,0.5302917957305908,-0.4124746024608612,-2.45491886138916
1717003865943238000,9.28823779296875,0.4954734742641449,-0.41980478167533875,-2.3547399044036865
1717003865952903400,9.2979033203125,0.5895439386367798,0.05115845799446106,-2.1293370723724365
1717003865962569200,9.3075693359375,0.6176429390907288,-0.1901262104511261,-2.1604905128479004
1717003865972234800,9.31723486328125,0.6359683275222778,-0.5566345453262329,-2.130558967590332
1717003865981900300,9.326900390625,0.6854469776153564,-0.6164975762367249,-1.907599687576294
1717003865991565800,9.33656591796875,0.6830036044120789,-0.465007483959198,-1.6272207498550415
1717003866001231400,9.3462314453125,0.5150206089019775,-0.37887802720069885,-1.3120235204696655
1717003866010897000,9.35589697265625,0.21448373794555664,-0.6488724946975708,-1.1513707637786865
1717003866020562400,9.3655625,0.09720107167959213,-0.3727695345878601,-0.7158366441726685
1717003866030228000,9.37522802734375,0.047111593186855316,-0.0587940476834774,-0.29618456959724426
1717003866039893800,9.384893798828125,-0.05428905040025711,0.021837789565324783,-0.012064233422279358
1717003866049559300,9.394559326171875,-0.16973918676376343,0.06887302547693253,0.27747735381126404
1717003866059224800,9.404224853515625,-0.2790808379650116,0.10674555599689484,0.4931064546108246
1717003866068890400,9.413890380859375,-0.36521029472351074,0.08964183181524277,0.7026270627975464
1717003866078556000,9.423555908203125,-0.4691306948661804,0.06765133142471313,0.8919897079467773
1717003866088221400,9.433221435546875,-0.5625903010368347,0.009009997360408306,1.089293360710144
1717003866097887000,9.442886962890626,-0.6420004963874817,-0.06734590977430344,1.3385190963745117
1717003866107552500,9.452552490234375,-0.7788302302360535,-0.11987877637147903,1.5535372495651245
1717003866117218300,9.46221826171875,-0.9773555994033813,-0.16141638159751892,1.722741961479187
1717003866126883800,9.4718837890625,-1.0983033180236816,-0.2664821147918701,1.8833948373794556
1717003866136549400,9.48154931640625,-1.1777135133743286,-0.39353835582733154,2.0318307876586914
1717003866146215000,9.49121484375,-1.266897201538086,-0.4155288338661194,2.158276081085205
1717003866155880400,9.50088037109375,-1.245517611503601,-0.4014793634414673,2.279223918914795
1717003866165546000,9.5105458984375,-1.161220669746399,-0.44484952092170715,2.433157444000244
1717003866175211500,9.52021142578125,-1.0946383476257324,-0.4546230733394623,2.574263095855713
1717003866184877000,9.529876953125,-1.0384403467178345,-0.46073153614997864,2.6531386375427246
1717003866194542600,9.53954248046875,-0.9620844125747681,-0.5138752460479736,2.700784683227539
1717003866204208400,9.54920849609375,-0.8533536195755005,-0.6598677635192871,2.749041795730591
1717003866213874000,9.5588740234375,-0.7232431769371033,-0.8125795722007751,2.766756296157837
1717003866223539500,9.56853955078125,-0.5851916670799255,-0.7936432957649231,2.7545392513275146
1717003866233205000,9.578205078125,-0.4599680006504059,-0.6329904794692993,2.7478201389312744
1717003866242870500,9.58787060546875,-0.33833301067352295,-0.4760027229785919,2.706282377243042
1717003866252536000,9.5975361328125,-0.2387649267911911,-0.43080002069473267,2.6494736671447754
1717003866262201600,9.60720166015625,-0.17645850777626038,-0.48577627539634705,2.601140260696411
1717003866271867100,9.6168671875,-0.13797512650489807,-0.5731274485588074,2.577317237854004
1717003866281533000,9.626532958984376,-0.12026055157184601,-0.6201626658439636,2.57181978225708
1717003866291198500,9.636198486328125,-0.10071343928575516,-0.5761816501617432,2.5522725582122803
1717003866300864000,9.645864013671876,-0.06406260281801224,-0.4888305068016052,2.516843318939209
1717003866310529500,9.655529541015625,-0.007253811229020357,-0.4662291705608368,2.4899661540985107
1717003866320195000,9.665195068359376,0.06788039952516556,-0.5468609929084778,2.488133668899536
1717003866329860600,9.674860595703125,0.14545799791812897,-0.7032378911972046,2.507680654525757
1717003866339526100,9.684526123046876,0.20898611843585968,-0.8217422962188721,2.5534942150115967
1717003866349191700,9.694191650390625,0.24746949970722198,-0.9006179571151733,2.617633104324341
1717003866358857500,9.703857421875,0.2755684554576874,-1.0014077425003052,2.6726858615875244
1717003866368523000,9.71352294921875,0.3091650605201721,-1.1504544019699097,2.6842918395996094
1717003866378188500,9.7231884765625,0.31954947113990784,-1.327600121498108,2.6751291751861572
1717003866387854000,9.73285400390625,0.29145050048828125,-1.4430502653121948,2.6641340255737305
1717003866397519600,9.74251953125,0.21692712604999542,-1.4619865417480469,2.653749465942383
1717003866407185200,9.75218505859375,0.09964445978403091,-1.459543228149414,2.626796007156372
1717003866416850700,9.7618505859375,-0.024968381971120834,-1.4613757133483887,2.5968644618988037
1717003866426516200,9.77151611328125,-0.12820157408714294,-1.4821444749832153,2.5785388946533203
1717003866436181800,9.781181640625,-0.20516832172870636,-1.5701065063476562,2.577928066253662
1717003866445847300,9.790847412109375,-0.24548424780368805,-1.6544034481048584,2.6139681339263916
1717003866455513000,9.80051318359375,-0.25953373312950134,-1.7008278369903564,2.673907518386841
1717003866465178600,9.8101787109375,-0.26075541973114014,-1.643408179283142,2.7307162284851074
1717003866474844200,9.81984423828125,-0.2656421959400177,-1.5114651918411255,2.778362512588501
1717003866484509700,9.829509765625,-0.2760266065597534,-1.3819655179977417,2.836392879486084
1717003866494175200,9.83917529296875,-0.2754157483577728,-1.3074421882629395,2.911527156829834
1717003866503840800,9.8488408203125,-0.2546469569206238,-1.3282109498977661,2.9884939193725586
1717003866513506300,9.85850634765625,-0.2143310308456421,-1.4228923320770264,3.070958137512207
1717003866523171800,9.868171875,-0.2118876427412033,-1.602481484413147,3.188851833343506
1717003866532837400,9.87783740234375,-0.253425270318985,-1.72587251663208,3.327514171600342
1717003866542503200,9.887503173828126,-0.33955472707748413,-1.73564612865448,3.4344122409820557
1717003866552168700,9.897168701171875,-0.474017471075058,-1.6666203737258911,3.475950002670288
1717003866561834200,9.906834228515624,-0.6682668924331665,-1.5029133558273315,3.45579195022583
1717003866571499800,9.916499755859375,-0.9199360013008118,-1.1919920444488525,3.3873770236968994
1717003866581165300,9.926165283203124,-1.1972606182098389,-0.8009734749794006,3.2975826263427734
1717003866590830800,9.935830810546875,-1.48130464553833,-0.42041563987731934,3.215728998184204
1717003866600496400,9.945496337890624,-1.7543532848358154,-0.058183200657367706,3.177245616912842
1717003866610162000,9.955161865234375,-1.9522678852081299,0.4934118688106537,3.2114531993865967
1717003866619827700,9.96482763671875,-2.1312460899353027,0.8354863524436951,3.317129611968994
1717003866629493200,9.9744931640625,-2.2399768829345703,0.695602297782898,3.4887778759002686
1717003866639158800,9.98415869140625,-2.3535945415496826,0.3608580231666565,3.6567606925964355
1717003866648824300,9.99382421875,-2.4134576320648193,0.09452861547470093,3.75022029876709
1717003866658489900,10.00348974609375,-2.380471706390381,-0.05268557742238045,3.7435011863708496
1717003866668155400,10.0131552734375,-2.3248846530914307,-0.11926792562007904,3.629272699356079
1717003866677821000,10.022821044921875,-2.2515830993652344,-0.19195875525474548,3.460678815841675
1717003866687486500,10.032486572265626,-2.097038745880127,-0.2438807636499405,3.2713160514831543
1717003866697152000,10.042152099609375,-1.8850746154785156,-0.3049654960632324,3.0727908611297607
1717003866706817500,10.051817626953126,-1.6511201858520508,-0.3953709006309509,2.858994245529175
1717003866716483300,10.0614833984375,-1.4354910850524902,-0.5254813432693481,2.6371803283691406
1717003866726148900,10.07114892578125,-1.2473500967025757,-0.6788040399551392,2.427659749984741
1717003866735814400,10.080814453125,-1.0958600044250488,-0.830294132232666,2.2578442096710205
1717003866745480000,10.09047998046875,-0.9865183234214783,-0.9568158984184265,2.1368963718414307
1717003866755145500,10.1001455078125,-0.8826742768287659,-1.0569947957992554,2.001899242401123
1717003866764811000,10.10981103515625,-0.7140804529190063,-1.0686008930206299,1.7972652912139893
1717003866774476500,10.1194765625,-0.48012593388557434,-0.9427663683891296,1.5303250551223755
1717003866784142000,10.12914208984375,-0.24670593440532684,-0.7576032876968384,1.2591089010238647
1717003866793808000,10.138807861328125,-0.08360971510410309,-0.5236487984657288,1.055696725845337
1717003866803473400,10.148473388671874,-0.0164165198802948,-0.26037365198135376,0.9286405444145203
1717003866813139000,10.158138916015625,-0.04085041210055351,-0.019088976085186005,0.8632798790931702
1717003866822804500,10.167804443359374,-0.13247749209403992,0.18371231853961945,0.8333483934402466
1717003866832470000,10.177469970703125,-0.24731677770614624,0.3602471649646759,0.7973083853721619
1717003866842135600,10.187135498046874,-0.3310028612613678,0.5276193022727966,0.7423321604728699
1717003866851801000,10.196801025390625,-0.39643988013267517,0.6778877377510071,0.6769714951515198
1717003866861466600,10.206466552734375,-0.4489727318286896,0.7719582319259644,0.6018372774124146
1717003866871132400,10.21613232421875,-0.46363306045532227,0.8079982399940491,0.5102101564407349
1717003866880798000,10.2257978515625,-0.42637139558792114,0.8196043372154236,0.41858309507369995
1717003866890463500,10.23546337890625,-0.3444415032863617,0.8654178380966187,0.3477247953414917
1717003866900129000,10.24512890625,-0.24365170300006866,0.9564340710639954,0.30068957805633545
1717003866909794600,10.254794677734376,-0.173404261469841,1.0596672296524048,0.26342788338661194
1717003866919460000,10.264460205078125,-0.16546325385570526,1.1231954097747803,0.22738789021968842
1717003866929125600,10.274125732421876,-0.2118876427412033,1.1366339921951294,0.19440214335918427
1717003866938791200,10.283791259765625,-0.2888543903827667,1.0914313793182373,0.1644706279039383
1717003866948456700,10.293456787109376,-0.37261682748794556,0.9759812355041504,0.14370182156562805
1717003866958122500,10.30312255859375,-0.4428642690181732,0.7982246279716492,0.13209572434425354
1717003866967788000,10.3127880859375,-0.4862344264984131,0.6003101468086243,0.12843063473701477
1717003866977453600,10.32245361328125,-0.4844018816947937,0.4225535988807678,0.13148486614227295
1717003866987119000,10.332119140625,-0.4282039403915405,0.27411770820617676,0.1382041871547699
1717003866996784600,10.34178466796875,-0.3175642192363739,0.16172181069850922,0.14064757525920868
1717003867006450200,10.3514501953125,-0.16607409715652466,0.08170082420110703,0.12843063473701477
1717003867016115700,10.36111572265625,0.0019088976550847292,0.0328330397605896,0.0984991192817688
1717003867025781200,10.37078125,0.15095563232898712,-0.02886253222823143,0.03374931216239929
1717003867035447000,10.380447021484375,0.2321983128786087,-0.125987246632576,-0.0695602297782898
1717003867045112600,10.390112548828125,0.22853323817253113,-0.23899398744106293,-0.19783815741539001
1717003867054778000,10.399778076171875,0.1546207070350647,-0.3434488773345947,-0.31206658482551575
1717003867064443600,10.409443603515625,0.06849125027656555,-0.39048412442207336,-0.3798706531524658
1717003867074109200,10.419109130859376,0.012293301522731781,-0.3489464819431305,-0.38842248916625977
1717003867083774700,10.428774658203125,-0.01763821393251419,-0.20845162868499756,-0.3474957346916199
1717003867093440300,10.438440185546876,-0.03962871432304382,0.012064233422279358,-0.2754157483577728
1717003867103105800,10.448105712890625,-0.06406260281801224,0.2851129472255707,-0.19050799310207367
1717003867112771600,10.457771484375,-0.0952158197760582,0.5856497883796692,-0.10254598408937454
1717003867122437000,10.46743701171875,-0.13736428320407867,0.8660287261009216,-0.012064233422279358
1717003867132102700,10.4771025390625,-0.19783815741539001,1.0712733268737793,0.08017370104789734
1717003867141768200,10.486768310546875,-0.2674747407436371,1.1659547090530396,0.1772984117269516
1717003867151433700,10.496433837890624,-0.32245099544525146,1.1506835222244263,0.2701472043991089
1717003867161099300,10.506099365234375,-0.34810659289360046,1.0443960428237915,0.35322242975234985
1717003867170764800,10.515764892578124,-0.33588963747024536,0.8861866593360901,0.41980478167533875
1717003867180430600,10.5254306640625,-0.2925194799900055,0.6974348425865173,0.4521796703338623
1717003867190096000,10.535095947265624,-0.24181915819644928,0.49890950322151184,0.4362976551055908
1717003867199761700,10.54476171875,-0.19600561261177063,0.3174878656864166,0.3727695345878601
1717003867209427200,10.55442724609375,-0.15263545513153076,0.16111096739768982,0.27503398060798645
1717003867219092700,10.5640927734375,-0.11048699915409088,0.037108972668647766,0.15286453068256378
1717003867228758300,10.57375830078125,-0.06406260281801224,-0.05390727147459984,0.021532366052269936
1717003867238423800,10.583423828125,-0.012751436792314053,-0.12781979143619537,-0.11354123055934906
1717003867248089300,10.59308935546875,0.03306210786104202,-0.18768282234668732,-0.24426254630088806
1717003867257755000,10.6027548828125,0.07826480269432068,-0.23471805453300476,-0.36337774991989136
1717003867267420700,10.612420654296875,0.11674818396568298,-0.27686652541160583,-0.4653892517089844
1717003867277086200,10.622086181640626,0.13507360219955444,-0.3110739588737488,-0.5509078502655029
1717003867286751700,10.631751708984375,0.141182079911232,-0.3208475112915039,-0.6217661499977112
1717003867296417300,10.641417236328126,0.14667969942092896,-0.2958027720451355,-0.6773532629013062
1717003867306082800,10.651082763671875,0.16989189386367798,-0.23899398744106293,-0.7256101965904236
1717003867315748400,10.660748291015626,0.19554747641086578,-0.150421142578125,-0.778143048286438
1717003867325414000,10.670413818359375,0.2199813723564148,-0.031916771084070206,-0.8373952507972717
1717003867335079400,10.680079345703126,0.2456369549036026,0.12079504877328873,-0.9100860357284546
1717003867344745200,10.6897451171875,0.24013933539390564,0.2954973578453064,-1.1073896884918213
1717003867354410800,10.69941064453125,0.1405712217092514,0.47325390577316284,-1.7335081100463867
1717003867364076300,10.709076171875,0.07398887723684311,0.6760551929473877,-2.4934022426605225
1717003867373741800,10.718741943359374,0.12163496017456055,0.9020686745643616,-3.100660800933838
1717003867383407400,10.728407470703125,0.23708508908748627,1.1238062381744385,-3.53497314453125
1717003867393073000,10.738072998046874,0.39773792028427124,1.28018319606781,-3.80985426902771
1717003867402738400,10.747738525390625,0.5779378414154053,1.2636902332305908,-3.9625661373138428
1717003867412404000,10.757404052734374,0.7068266272544861,0.9497147798538208,-3.972339630126953
1717003867422069800,10.76706982421875,0.7874584794044495,0.266176700592041,-3.890486240386963
1717003867431735300,10.7767353515625,0.8216659426689148,-0.45767730474472046,-3.91430926322937
1717003867441400800,10.78640087890625,0.687890350818634,-0.6806365847587585,-4.081070423126221
1717003867451066400,10.79606640625,0.4832565486431122,-0.3220692276954651,-4.244777679443359
1717003867460732000,10.80573193359375,0.43866467475891113,0.23746687173843384,-4.1843037605285645
1717003867470397400,10.8153974609375,0.5681642889976501,0.7689039707183838,-3.8575005531311035
1717003867480063000,10.82506298828125,0.8344936966896057,1.2099356651306152,-3.230771064758301
1717003867489728800,10.834728759765625,1.1130400896072388,1.446333646774292,-2.4903478622436523
1717003867499394300,10.844394287109376,1.2321553230285645,1.2533059120178223,-1.977236270904541
1717003867509059800,10.854059814453125,1.2303227186203003,0.8574768304824829,-2.0535922050476074
1717003867518725400,10.863725341796876,1.1619077920913696,0.5178457498550415,-2.7262113094329834
1717003867528391000,10.873390869140625,0.9633824825286865,0.38223767280578613,-3.4867162704467773
1717003867538056400,10.883056396484376,0.7587486505508423,0.5312843918800354,-3.742661237716675
1717003867547722000,10.892721923828125,0.5125772356987,0.48608171939849854,-3.474499225616455
1717003867557387500,10.902387451171874,0.3116084635257721,0.1507265567779541,-3.078059434890747
1717003867567053000,10.912052978515625,0.38246673345565796,0.02489202655851841,-3.4549520015716553
1717003867576718800,10.92171875,0.5748836398124695,0.10491301864385605,-4.591127872467041
1717003867586384400,10.93138427734375,0.687890350818634,-0.4680617153644562,-5.466548442840576
1717003867596050000,10.9410498046875,0.6988856196403503,-1.6421865224838257,-5.667517185211182
1717003867605715500,10.950715576171875,0.7013289928436279,-2.034961223602295,-5.35651969909668
1717003867615381000,10.960381103515624,0.7764632105827332,-1.1620604991912842,-4.741396427154541
1717003867625046500,10.970046630859375,0.7935669422149658,0.1763821393251419,-4.000438690185547
1717003867634712000,10.979712158203125,0.6677324175834656,1.1696197986602783,-3.3431670665740967
1717003867644377900,10.9893779296875,0.42400434613227844,1.6271443367004395,-3.0188071727752686
1717003867654043400,10.99904345703125,0.1668376624584198,1.6747905015945435,-3.1061582565307617
1717003867663709000,11.008708984375,-0.008475505746901035,1.394411563873291,-3.4763317108154297
1717003867673374500,11.01837451171875,-0.08360971510410309,0.876413106918335,-3.9466841220855713
1717003867683040000,11.0280400390625,-0.03168770298361778,0.44271156191825867,-4.250885963439941
1717003867692705500,11.03770556640625,0.10025530308485031,0.06337540596723557,-4.221565246582031
1717003867702371000,11.04737109375,0.32932302355766296,-0.04718795046210289,-4.1091694831848145
1717003867712036900,11.057036865234375,0.6939988136291504,0.4011739492416382,-4.202629089355469
1717003867721702400,11.066702392578126,1.071502447128296,1.1018157005310059,-4.3809967041015625
1717003867731368000,11.076367919921875,1.3341667652130127,1.5611728429794312,-4.544703483581543
1717003867741033500,11.086033447265624,1.4184637069702148,1.515970230102539,-4.619226932525635
1717003867750699000,11.095698974609375,1.2969050407409668,0.9344435930252075,-4.6357197761535645
1717003867760364500,11.105364501953124,1.0971580743789673,0.11529742181301117,-4.657710552215576
1717003867770030000,11.115030029296875,0.9963682293891907,-0.5108210444450378,-4.293034553527832
1717003867779695600,11.124695556640624,0.9969790577888489,-0.6916317939758301,-3.541081666946411
1717003867789361400,11.134361328125,0.9371160268783569,-0.1626380831003189,-3.0163638591766357
1717003867799027000,11.14402685546875,0.9267316460609436,0.6888830065727234,-2.8416614532470703
1717003867808692500,11.1536923828125,1.1014339923858643,1.0798252820968628,-2.773857355117798
1717003867818358000,11.16335791015625,1.336610198020935,1.0004150867462158,-2.7268221378326416
1717003867828023600,11.1730234375,1.4038033485412598,1.015075445175171,-2.6442813873291016
1717003867837689000,11.182689208984375,1.1948935985565186,1.1848909854888916,-2.5392158031463623
1717003867847354600,11.192354736328125,0.8913025259971619,1.3760861158370972,-2.4653031826019287
1717003867857020400,11.2020205078125,0.6304707527160645,1.4011309146881104,-2.316256523132324
1717003867866686000,11.21168603515625,0.5425087213516235,1.1537377834320068,-2.243565559387207
1717003867876351500,11.2213515625,0.5987066626548767,0.71453857421875,-2.291822671890259
1717003867886017000,11.23101708984375,0.6952205300331116,0.2790044844150543,-2.318089008331299
1717003867895682600,11.2406826171875,0.7789065837860107,0.30160582065582275,-2.2881574630737305
1717003867905348000,11.25034814453125,0.803340494632721,0.49768781661987305,-2.1580469608306885
1717003867915013600,11.260013671875,0.7288171648979187,0.26495498418807983,-2.041375160217285
1717003867924679400,11.269679443359376,0.6365792155265808,0.07925742864608765,-1.8856091499328613
1717003867934345000,11.279344970703125,0.5241833329200745,-0.04413371533155441,-1.6870837211608887
1717003867944010500,11.289010498046874,0.46004435420036316,0.08780929446220398,-1.2442195415496826
1717003867953676000,11.298676025390625,0.3916294574737549,0.10613471269607544,-0.8581640720367432
1717003867963341600,11.308341552734374,0.2609081268310547,0.23196925222873688,-0.3969743549823761
1717003867973007000,11.318007080078125,0.06543701142072678,0.21364383399486542,-0.008399149402976036
1717003867982672600,11.327672607421874,-0.11598462611436844,0.14095300436019897,0.29030516743659973
1717003867992338400,11.33733837890625,-0.30962321162223816,0.0584886260330677,0.5725166201591492
1717003868002004000,11.34700390625,-0.4599680006504059,-0.0325276181101799,0.8052493929862976
1717003868011669500,11.35666943359375,-0.5259394645690918,-0.07773031294345856,0.9897252917289734
1717003868021335000,11.3663349609375,-0.6035171151161194,-0.15530791878700256,1.164427638053894
1717003868031000600,11.37600048828125,-0.6969767212867737,-0.21028417348861694,1.3098092079162598
1717003868040666000,11.385666015625,-0.786160409450531,-0.24632415175437927,1.4631319046020508
1717003868050331600,11.39533154296875,-0.8765658140182495,-0.2945810854434967,1.6176762580871582
1717003868059997400,11.40499755859375,-0.9584193229675293,-0.37826716899871826,1.769166350364685
1717003868069663000,11.4146630859375,-1.0323318243026733,-0.4790569543838501,1.9139372110366821
1717003868079328500,11.42432861328125,-1.1086877584457397,-0.5615213513374329,2.0238897800445557
1717003868088994000,11.433994140625,-1.1948171854019165,-0.645207405090332,2.1368963718414307
1717003868098659600,11.44365966796875,-1.2907202243804932,-0.798530101776123,2.2517356872558594
1717003868108325000,11.4533251953125,-1.364021897315979,-1.0099595785140991,2.3305349349975586
1717003868117990700,11.46299072265625,-1.372573733329773,-1.1229662895202637,2.357412338256836
1717003868127656400,11.472656494140624,-1.3102673292160034,-1.1370158195495605,2.3622989654541016
1717003868137322000,11.482322021484375,-1.2009257078170776,-1.119301199913025,2.3555798530578613
1717003868146987500,11.491987548828124,-1.0793671607971191,-1.1113601922988892,2.351303815841675
1717003868156653000,11.501653076171875,-0.9071081876754761,-1.1272422075271606,2.322593927383423
1717003868166318600,11.511318603515624,-0.7458444833755493,-1.144345998764038,2.3592448234558105
1717003868175984000,11.520984130859375,-0.6762079000473022,-1.0618816614151,2.4508719444274902
1717003868185650000,11.53064990234375,-0.6542174220085144,-0.7948650121688843,2.4771382808685303
1717003868195315500,11.5403154296875,-0.6255075931549072,-0.5322006940841675,2.4551477432250977
1717003868204981000,11.54998095703125,-0.5888567566871643,-0.39048412442207336,2.502183198928833
1717003868214646500,11.559646484375,-0.5650337338447571,-0.3458922505378723,2.615800619125366
1717003868224312000,11.56931201171875,-0.5296045541763306,-0.38193225860595703,2.708725929260254
1717003868233977600,11.5789775390625,-0.46607646346092224,-0.5822901725769043,2.697730541229248
1717003868243643100,11.58864306640625,-0.3946073353290558,-0.9305494427680969,2.6200766563415527
1717003868253309000,11.598308837890626,-0.3328354060649872,-1.1638931035995483,2.5638787746429443
1717003868262974500,11.607974365234375,-0.2748049199581146,-1.2164260149002075,2.5327253341674805
1717003868272640000,11.617639892578126,-0.21860696375370026,-1.268347978591919,2.5064589977264404
1717003868282305500,11.627305419921875,-0.17645850777626038,-1.369748592376709,2.462477922439575
1717003868291971000,11.63697119140625,-0.15202461183071136,-1.4485479593276978,2.3971173763275146
1717003868301636600,11.64663671875,-0.14164020121097565,-1.3758571147918701,2.3849003314971924
1717003868311302100,11.65630224609375,-0.14408360421657562,-1.2139825820922852,2.417886257171631
1717003868320968000,11.665968017578125,-0.17829103767871857,-1.1241880655288696,2.4636998176574707
1717003868330633500,11.675633544921874,-0.24853847920894623,-1.236583948135376,2.4979071617126465
1717003868340299000,11.685299072265625,-0.32428354024887085,-1.4167838096618652,2.557770252227783
1717003868349964500,11.694964599609374,-0.41232189536094666,-1.6079790592193604,2.617633104324341
1717003868359630000,11.704630126953125,-0.5118899941444397,-1.8205538988113403,2.651916980743408
1717003868369295600,11.714295654296874,-0.6193991303443909,-1.9922019243240356,2.6610796451568604
1717003868378961200,11.723961181640625,-0.70308518409729,-2.06916880607605,2.6403110027313232
1717003868388627000,11.733626953125,-0.7666133046150208,-2.0532867908477783,2.5993077754974365
1717003868398292500,11.74329248046875,-0.8014315962791443,-1.9665464162826538,2.5620460510253906
1717003868407958000,11.7529580078125,-0.8167027831077576,-1.8260514736175537,2.5767064094543457
1717003868417623600,11.76262353515625,-0.8454126119613647,-1.6873892545700073,2.671464204788208
1717003868427289000,11.7722890625,-0.8955020904541016,-1.5670522451400757,2.8235650062561035
1717003868436954600,11.78195458984375,-0.9706363081932068,-1.5010807514190674,2.9829962253570557
1717003868446620200,11.7916201171875,-1.081810474395752,-1.495583176612854,3.117382526397705
1717003868456286000,11.801285888671876,-1.2070342302322388,-1.5230712890625,3.221226692199707
1717003868465951500,11.810951416015625,-1.30476975440979,-1.5389533042907715,3.302469253540039
1717003868475617000,11.820616943359376,-1.3566917181015015,-1.4803119897842407,3.3562238216400146
1717003868485282600,11.830282470703125,-1.3328686952590942,-1.194435477256775,3.3501155376434326
1717003868494948000,11.839947998046876,-1.2785032987594604,-0.695907711982727,3.287809133529663
1717003868504613600,11.849613525390625,-1.2571237087249756,-0.16630317270755768,3.203512191772461
1717003868514279200,11.859279052734376,-1.266897201538086,0.2429644912481308,3.1357080936431885
1717003868523945000,11.868945068359375,-1.3145432472229004,0.46042612195014954,3.1350972652435303
1717003868533610500,11.878610595703124,-1.4055595397949219,0.45859357714653015,3.2395520210266113
1717003868543276000,11.888276123046875,-1.508792757987976,0.28694549202919006,3.4338014125823975
1717003868552941600,11.897941650390624,-1.6492875814437866,0.10308047384023666,3.675086259841919
1717003868562607000,11.907607177734375,-1.8673601150512695,-0.011147962883114815,3.9108731746673584
1717003868572272600,11.917272705078124,-2.143463134765625,0.009009997360408306,4.078245162963867
1717003868581938200,11.926938232421875,-2.3328256607055664,0.3828485310077667,4.071526050567627
1717003868591604000,11.93660400390625,-2.3480968475341797,0.8690829277038574,3.9316420555114746
1717003868601269500,11.94626953125,-2.2399768829345703,1.1641221046447754,3.744112014770508
1717003868610935000,11.95593505859375,-2.0897085666656494,1.213600754737854,3.5840699672698975
1717003868620600600,11.9656005859375,-1.9504352807998657,1.0651649236679077,3.4857234954833984
1717003868630266000,11.97526611328125,-1.8606407642364502,0.8263236284255981,3.424027919769287
1717003868639931600,11.984931640625,-1.7965017557144165,0.5661026835441589,3.3446178436279297
1717003868649597400,11.994597412109375,-1.7274760007858276,0.3639122545719147,3.1974036693573
1717003868659263000,12.004262939453126,-1.6541743278503418,0.22708246111869812,2.9909372329711914
1717003868668928500,12.013928466796875,-1.5943113565444946,0.09391776472330093,2.728883743286133
1717003868678594000,12.023593994140626,-1.5399459600448608,-0.07467607408761978,2.4227728843688965
1717003868688259600,12.033259521484375,-1.4684767723083496,-0.26098448038101196,2.1240687370300293
1717003868697925000,12.042925048828126,-1.3799039125442505,-0.43446511030197144,1.8681236505508423
1717003868707590700,12.052590576171875,-1.2888877391815186,-0.6079457402229309,1.6738742589950562
1717003868717256400,12.06225634765625,-1.1917630434036255,-0.7582141757011414,1.5468180179595947
1717003868726922000,12.071921875,-1.0757020711898804,-0.8364789485931396,1.4588559865951538
1717003868736587500,12.08158740234375,-0.9535325765609741,-0.7997517585754395,1.3879976272583008
1717003868746253000,12.091253173828125,-0.8069292306900024,-0.6519267559051514,1.3372973203659058
1717003868755918600,12.100918701171874,-0.6328377723693848,-0.43202173709869385,1.2957597970962524
1717003868765584100,12.110584228515625,-0.45019441843032837,-0.1388150453567505,1.2432268857955933
1717003868775250000,12.12025,-0.28396761417388916,0.20753535628318787,1.1796988248825073
1717003868784915500,12.12991552734375,-0.1361425817012787,0.5673243999481201,1.1143381595611572
1717003868794581000,12.1395810546875,-0.00786465872079134,0.9020686745643616,1.066081166267395
