time,seconds_elapsed,z,y,x
1717003856693312000,0.03831201171875,0,0,0
1717003856702977500,0.0479775390625,0.0984201431274414,-0.12766727805137634,0.18945592641830444
1717003856712643000,0.05764306640625,0.09324169158935547,-0.2643985152244568,0.3732975125312805
1717003856722308600,0.06730859375,-0.030755996704101562,-0.35923779010772705,0.5132837891578674
1717003856731974100,0.07697412109375,-0.16319847106933594,-0.3711489140987396,0.6303368806838989
1717003856741639700,0.0866396484375,-0.27130603790283203,-0.6844733953475952,0.6901237368583679
1717003856751305200,0.09630517578125,-0.31578731536865234,-0.9464192390441895,0.6396424174308777
1717003856760970800,0.105970703125,0.2130117416381836,-0.8911054134368896,0.35585132241249084
1717003856770636300,0.11563623046875,0.7072715759277344,-0.3634084165096283,-0.32204684615135193
1717003856780301800,0.1253017578125,0.25066375732421875,0.28661036491394043,-0.9703289270401001
1717003856789967400,0.13496728515625,-0.3845682144165039,0.41468533873558044,-1.449620246887207
1717003856799633000,0.1446328125,-0.7407150268554688,0.31340450048446655,-1.7795438766479492
1717003856809298400,0.15429833984375,-0.7918739318847656,0.23088836669921875,-1.9718449115753174
1717003856818964000,0.1639638671875,-0.9949312210083008,0.17840701341629028,-2.0010833740234375
1717003856828629500,0.17362939453125,-1.5305328369140625,0.02049022912979126,-1.7717303037643433
1717003856838295000,0.183294921875,-2.3016891479492188,-0.27450305223464966,-1.383786678314209
1717003856847960600,0.192960693359375,-2.7171239852905273,-0.5080292224884033,-0.9572880268096924
1717003856857626000,0.202626220703125,-2.759779930114746,-0.5664460062980652,-0.4785294532775879
1717003856867291600,0.212291748046875,-2.602294445037842,-0.43454092741012573,-0.10861456394195557
1717003856876957200,0.221957275390625,-2.247847080230713,-0.054327189922332764,0.06267678737640381
1717003856886622700,0.231622802734375,-1.7064628601074219,0.40817534923553467,0.015225410461425781
1717003856896288300,0.241288330078125,-1.057297706604004,0.7662445902824402,-0.25625622272491455
1717003856905953800,0.250953857421875,-0.5115528106689453,0.9766355156898499,-0.6555533409118652
1717003856915619300,0.260619384765625,-0.33243370056152344,0.9680476784706116,-0.8218892812728882
1717003856925284900,0.270284912109375,-0.49199485778808594,0.8931536078453064,-0.6952434778213501
1717003856934950400,0.279950439453125,-0.6976985931396484,0.7980308532714844,-0.424314022064209
1717003856944616000,0.289615966796875,-0.6831684112548828,0.6288775205612183,-0.09132766723632812
1717003856954281500,0.299281494140625,-0.4648885726928711,0.4559450149536133,0.23944449424743652
1717003856963947000,0.308947021484375,-0.3070545196533203,0.3279489278793335,0.4703986644744873
1717003856973612500,0.318612548828125,-0.3406505584716797,0.2862579822540283,0.7285714149475098
1717003856983278000,0.328278076171875,-0.3790254592895508,0.19262683391571045,0.9995243549346924
1717003856992943600,0.337943603515625,-0.3767051696777344,0.10307496786117554,1.1305582523345947
1717003857002609200,0.347609130859375,-0.2676973342895508,0.016879171133041382,1.121936321258545
1717003857012274700,0.357274658203125,-0.16441059112548828,-0.057524293661117554,1.0380430221557617
1717003857021940200,0.366940185546875,-0.08307456970214844,-0.16673311591148376,0.9072549343109131
1717003857031605800,0.376605712890625,-0.031463623046875,-0.33202534914016724,0.7685489654541016
1717003857041271300,0.386271240234375,-0.029697418212890625,-0.5174247622489929,0.6896195411682129
1717003857050936800,0.395936767578125,-0.08501338958740234,-0.58277827501297,0.5835199356079102
1717003857060602400,0.405602294921875,-0.09743881225585938,-0.5566422939300537,0.5631415843963623
1717003857070268000,0.415267822265625,-0.10276508331298828,-0.504518449306488,0.666588306427002
1717003857079933400,0.424933349609375,-0.24761104583740234,-0.4556437134742737,0.6975150108337402
1717003857089599000,0.434598876953125,-0.4837226867675781,-0.3992019295692444,0.664553165435791
1717003857099264500,0.444264404296875,-0.766362190246582,-0.40042731165885925,0.5740218162536621
1717003857108930000,0.453929931640625,-1.0599980354309082,-0.41835805773735046,0.4933137893676758
1717003857118595600,0.463595703125,-1.3203415870666504,-0.39098578691482544,0.43744707107543945
1717003857128261000,0.47326123046875,-1.3864541053771973,-0.1632521152496338,0.3907742500305176
1717003857137926700,0.4829267578125,-1.3217415809631348,0.22959238290786743,0.33507680892944336
1717003857147592200,0.49259228515625,-1.0198993682861328,0.5797417163848877,0.23424386978149414
1717003857157257700,0.5022578125,-0.6045093536376953,0.8323583602905273,0.07743358612060547
1717003857166923300,0.51192333984375,-0.17269277572631836,0.9815545678138733,-0.06707525253295898
1717003857176588800,0.5215888671875,0.29245948791503906,1.0649808645248413,-0.20577144622802734
1717003857186254300,0.53125439453125,0.7472405433654785,1.0957708358764648,-0.3870105743408203
1717003857195920000,0.540919921875,1.071573257446289,1.0981261730194092,-0.5922813415527344
1717003857205585400,0.55058544921875,1.1972112655639648,1.0192657709121704,-0.7603945732116699
1717003857215251000,0.5602509765625,1.3339252471923828,1.0397623777389526,-0.9396190643310547
1717003857224916500,0.56991650390625,1.3870735168457031,1.1687407493591309,-0.9786968231201172
1717003857234582000,0.57958203125,1.4739737510681152,1.2781269550323486,-0.9553604125976562
1717003857244247600,0.58924755859375,1.5260767936706543,1.329993724822998,-0.916285514831543
1717003857253913000,0.5989130859375,1.5009589195251465,1.3408406972885132,-0.9281859397888184
1717003857263578600,0.60857861328125,1.447401523590088,1.3255736827850342,-0.9965524673461914
1717003857273244200,0.618244140625,1.42689847946167,1.2707388401031494,-1.1171355247497559
1717003857282909700,0.62790966796875,1.4338431358337402,1.1649203300476074,-1.2737793922424316
1717003857292575200,0.6375751953125,1.4410796165466309,1.011127233505249,-1.4272775650024414
1717003857302240800,0.64724072265625,1.5537643432617188,0.8362241983413696,-1.4942688941955566
1717003857311906300,0.65690625,1.8028411865234375,0.6971938610076904,-1.4311962127685547
1717003857321571800,0.66657177734375,2.0486884117126465,0.62381911277771,-1.3368945121765137
1717003857331237400,0.6762373046875,2.180694103240967,0.6168866157531738,-1.239783763885498
1717003857340903000,0.68590283203125,2.2003493309020996,0.651138186454773,-1.156097412109375
1717003857350568400,0.695568359375,2.115694522857666,0.7007312774658203,-1.1242003440856934
1717003857360234000,0.70523388671875,1.9257164001464844,0.7555763721466064,-1.1454224586486816
1717003857369899500,0.7148994140625,1.7100834846496582,0.8111518621444702,-1.1557893753051758
1717003857379565000,0.72456494140625,1.6081128120422363,0.8611416816711426,-1.1281838417053223
1717003857389230600,0.734230712890625,1.6584229469299316,0.9162100553512573,-1.0885510444641113
1717003857398896000,0.743896240234375,1.8124961853027344,0.9923784732818604,-1.0592060089111328
1717003857408561700,0.753561767578125,1.9800515174865723,1.081973671913147,-1.0167250633239746
1717003857418227200,0.763227294921875,2.1290321350097656,1.1766588687896729,-0.9710917472839355
1717003857427892500,0.772892578125,2.2624058723449707,1.2538294792175293,-0.9193859100341797
1717003857437558300,0.782558349609375,2.415741443634033,1.3052643537521362,-0.8772101402282715
1717003857447223800,0.792223876953125,2.5526185035705566,1.3792979717254639,-0.8772497177124023
1717003857456889300,0.801889404296875,2.6778054237365723,1.4108543395996094,-0.9075279235839844
1717003857466554600,0.8115546875,2.73050594329834,1.3849290609359741,-0.9313769340515137
1717003857476220400,0.821220458984375,2.7227916717529297,1.3206230401992798,-0.9648385047912598
1717003857485886000,0.830885986328125,2.6671676635742188,1.2389317750930786,-0.9929523468017578
1717003857495551200,0.84055126953125,2.5549774169921875,1.1680703163146973,-1.0035696029663086
1717003857505216800,0.850216796875,2.4041919708251953,1.0571397542953491,-0.973574161529541
1717003857514882600,0.859882568359375,2.2692060470581055,0.9261132478713989,-0.9024362564086914
1717003857524548000,0.869548095703125,2.1668310165405273,0.7462469339370728,-0.785820484161377
1717003857534213400,0.87921337890625,2.0886411666870117,0.5887043476104736,-0.7086071968078613
1717003857543879000,0.88887890625,1.9774675369262695,0.46932268142700195,-0.6552839279174805
1717003857553544700,0.898544677734375,1.8182144165039062,0.28987693786621094,-0.542393684387207
1717003857563210000,0.9082099609375,1.6621360778808594,0.027489900588989258,-0.41063976287841797
1717003857572875500,0.91787548828125,1.5001049041748047,-0.22677302360534668,-0.3394908905029297
1717003857582541000,0.927541015625,1.347010612487793,-0.41217660903930664,-0.30365514755249023
1717003857592206600,0.93720654296875,1.2185935974121094,-0.5350337028503418,-0.2978525161743164
1717003857601872100,0.9468720703125,1.0870943069458008,-0.5871994495391846,-0.3299427032470703
1717003857611537700,0.95653759765625,0.8955039978027344,-0.6531853675842285,-0.3779430389404297
1717003857621203200,0.966203125,0.6482839584350586,-0.7298924922943115,-0.40620851516723633
1717003857630868700,0.97586865234375,0.3550863265991211,-0.8067493438720703,-0.42225170135498047
1717003857640534300,0.9855341796875,0.049803733825683594,-0.8855557441711426,-0.4399080276489258
1717003857650199800,0.99519970703125,-0.2682313919067383,-0.9877476692199707,-0.47124385833740234
1717003857659865300,1.004865234375,-0.5794458389282227,-1.089620590209961,-0.5542564392089844
1717003857669531000,1.01453076171875,-0.8585109710693359,-1.186957836151123,-0.6774826049804688
1717003857679196400,1.024196533203125,-1.0691728591918945,-1.3372910022735596,-0.7645339965820312
1717003857688862000,1.033862060546875,-1.118340015411377,-1.511737585067749,-0.9898080825805664
1717003857698527500,1.043527587890625,-0.991795539855957,-1.6616318225860596,-1.3022732734680176
1717003857708193000,1.053193115234375,-0.7293086051940918,-1.8602104187011719,-1.6176528930664062
1717003857717858600,1.062858642578125,-0.28746604919433594,-2.158576488494873,-1.9399402141571045
1717003857727524000,1.072524169921875,0.2692408561706543,-2.5619473457336426,-2.261650562286377
1717003857737189600,1.082189697265625,0.8029742240905762,-3.021878480911255,-2.567505121231079
1717003857746855200,1.091855224609375,1.3317651748657227,-3.5032339096069336,-2.85107421875
1717003857756520700,1.101520751953125,1.856821060180664,-3.9646153450012207,-3.1578125953674316
1717003857766186200,1.111186279296875,2.4305429458618164,-4.344027519226074,-3.459073543548584
1717003857775851800,1.120851806640625,3.0549964904785156,-4.639904975891113,-3.651273250579834
1717003857785517300,1.130517333984375,3.6213698387145996,-4.769981384277344,-3.696021556854248
1717003857795182800,1.140182861328125,4.057269096374512,-4.720149040222168,-3.511101722717285
1717003857804848400,1.149848388671875,4.366101264953613,-4.473029136657715,-3.11063814163208
1717003857814514000,1.159513916015625,4.43275785446167,-4.066187858581543,-2.5683999061584473
1717003857824179500,1.169179443359375,4.191786289215088,-3.5984296798706055,-1.7517857551574707
1717003857833845000,1.178844970703125,3.6444602012634277,-2.9112637042999268,-0.9203100204467773
1717003857843510500,1.188510498046875,2.861769199371338,-1.9975614547729492,-0.1420612335205078
1717003857853176000,1.198176025390625,1.9527382850646973,-0.9491779804229736,0.631260871887207
1717003857862841600,1.207841552734375,1.053645372390747,0.1889796257019043,1.3220443725585938
1717003857872507100,1.217507080078125,0.345691442489624,1.2494784593582153,1.9855451583862305
1717003857882172700,1.227172607421875,-0.25435471534729004,2.144578456878662,2.5357465744018555
1717003857891838200,1.236838134765625,-0.7627038955688477,2.8340537548065186,2.8418846130371094
1717003857901503700,1.246503662109375,-1.2637226581573486,3.32759690284729,2.828385353088379
1717003857911169300,1.256169189453125,-1.889634370803833,3.636451482772827,2.500401496887207
1717003857920834800,1.265834716796875,-2.729140520095825,3.815852165222168,1.8511838912963867
1717003857930500400,1.275500244140625,-3.588866710662842,3.9017562866210938,0.9458856582641602
1717003857940166000,1.285165771484375,-4.343497276306152,3.758607864379883,0.0135650634765625
1717003857949831400,1.29483154296875,-5.0292816162109375,3.527740716934204,-0.8760290145874023
1717003857959497000,1.3044970703125,-5.703559875488281,3.2836194038391113,-1.7931723594665527
1717003857969162500,1.31416259765625,-6.16400146484375,3.1183037757873535,-2.6715087890625
1717003857978828000,1.323828125,-6.500876426696777,2.8247933387756348,-3.3820419311523438
1717003857988493600,1.33349365234375,-6.416991233825684,2.5837419033050537,-3.896116256713867
1717003857998159000,1.3431591796875,-5.940830230712891,2.2776246070861816,-4.369192600250244
1717003858007824600,1.35282470703125,-4.997194766998291,2.043444871902466,-4.763063907623291
1717003858017490200,1.362490234375,-3.79056453704834,1.5776407718658447,-4.8591203689575195
1717003858027155700,1.37215576171875,-2.687183380126953,0.9153376817703247,-4.84401273727417
1717003858036821200,1.3818212890625,-1.7231839895248413,0.23643827438354492,-4.770847797393799
1717003858046486800,1.39148681640625,-0.8754338026046753,-0.5186216831207275,-4.5247626304626465
1717003858056152300,1.40115234375,-0.08743572235107422,-1.1103174686431885,-4.0887627601623535
1717003858065817900,1.41081787109375,0.5076730251312256,-1.6197001934051514,-3.361722946166992
1717003858075483400,1.4204833984375,1.0857325792312622,-1.8788096904754639,-2.547852039337158
1717003858085149000,1.43014892578125,1.2811466455459595,-1.7223505973815918,-1.8288168907165527
1717003858094814500,1.439814453125,1.1888580322265625,-1.29833984375,-1.2457513809204102
1717003858104480000,1.44947998046875,0.8811399340629578,-0.9263753890991211,-0.5918622016906738
1717003858114145500,1.4591455078125,0.24675536155700684,-0.652153491973877,-0.0902700424194336
1717003858123811000,1.46881103515625,-0.4527674913406372,-0.710871696472168,0.1292247772216797
1717003858133476600,1.4784765625,-0.9998183846473694,-0.3050656318664551,0.04200887680053711
1717003858143142100,1.48814208984375,-1.139169454574585,0.3609018325805664,0.017496585845947266
1717003858152807700,1.4978076171875,-0.9935468435287476,0.9977240562438965,-0.25153541564941406
1717003858162473200,1.50747314453125,-0.813739538192749,1.5211553573608398,-0.5113067626953125
1717003858172138800,1.517138671875,-0.4103613495826721,1.581174373626709,-0.6805133819580078
1717003858181804300,1.52680419921875,0.07513129711151123,1.1596593856811523,-0.3986201286315918
1717003858191469800,1.5364697265625,0.5887552499771118,0.3562288284301758,0.19561195373535156
1717003858201135400,1.54613525390625,1.1186165809631348,-0.5377254486083984,0.9296722412109375
1717003858210801000,1.55580078125,1.6552531719207764,-1.4784045219421387,1.6801443099975586
1717003858220466400,1.565466552734375,1.9081575870513916,-2.476541519165039,2.3309450149536133
1717003858230132000,1.575132080078125,2.125298500061035,-3.164978504180908,2.8612771034240723
1717003858239797500,1.584797607421875,2.395968198776245,-3.4489574432373047,3.133787155151367
1717003858249463000,1.594463134765625,2.358412981033325,-3.494204521179199,3.058427333831787
1717003858259128600,1.604128662109375,1.8686950206756592,-3.37274169921875,2.673523426055908
1717003858268794000,1.613794189453125,1.1985576152801514,-3.088625907897949,2.1412177085876465
1717003858278459600,1.623459716796875,0.5389083027839661,-2.633014678955078,1.5379133224487305
1717003858288125000,1.633125,0.12945586442947388,-2.0343809127807617,0.9724631309509277
1717003858297790700,1.642790771484375,-0.004401564598083496,-1.323439598083496,0.4966139793395996
1717003858307456300,1.652456298828125,0.11758407950401306,-0.5671224594116211,0.1380620002746582
1717003858317121800,1.662121826171875,0.3647995591163635,0.13198566436767578,-0.12998342514038086
1717003858326787000,1.671787109375,0.4893382787704468,0.6545066833496094,-0.3052082061767578
1717003858336452600,1.68145263671875,0.26632311940193176,0.9432082176208496,-0.4214026927947998
1717003858346118400,1.691118408203125,-0.39120054244995117,1.027604579925537,-0.39470338821411133
1717003858355783700,1.70078369140625,-1.124082088470459,1.1861143112182617,-0.28773045539855957
1717003858365449200,1.71044921875,-1.2791564464569092,1.297513484954834,-0.16104507446289062
1717003858375114800,1.72011474609375,-1.1026357412338257,1.3655776977539062,-0.03692340850830078
1717003858384780300,1.7297802734375,-0.9799426198005676,1.3797435760498047,0.04812788963317871
1717003858394445800,1.73944580078125,-0.8940958380699158,1.394815444946289,0.06963586807250977
1717003858404111400,1.749111328125,-0.8683826327323914,1.4402618408203125,0.017696142196655273
1717003858413777000,1.75877685546875,-0.9157091379165649,1.4876551628112793,-0.04562973976135254
1717003858423442400,1.7684423828125,-1.0150392055511475,1.5269513130187988,-0.05699324607849121
1717003858433108000,1.77810791015625,-1.1049716472625732,1.5307035446166992,-0.0048084259033203125
1717003858442773500,1.7877734375,-1.136528730392456,1.5091791152954102,0.09784293174743652
1717003858452439000,1.79743896484375,-1.0912320613861084,1.474639892578125,0.20171022415161133
1717003858462104600,1.8071044921875,-0.9774796962738037,1.4554681777954102,0.2695484161376953
1717003858471770000,1.81677001953125,-0.811635434627533,1.4251976013183594,0.2564866542816162
1717003858481435600,1.826435546875,-0.6159742474555969,1.3999357223510742,0.20541787147521973
1717003858491101200,1.83610107421875,-0.39810776710510254,1.4499483108520508,0.13499689102172852
1717003858500766700,1.8457666015625,-0.20523172616958618,1.6393976211547852,0.08013498783111572
1717003858510432300,1.855432373046875,-0.03727376461029053,1.87249755859375,0.06164276599884033
1717003858520097800,1.865097900390625,0.15347504615783691,2.1190433502197266,0.09507226943969727
1717003858529763300,1.874763427734375,0.34762945771217346,2.3922195434570312,0.16586574912071228
1717003858539428900,1.884428955078125,0.4644947946071625,2.7668018341064453,0.2627139687538147
1717003858549094400,1.894094482421875,0.5980167388916016,3.093860149383545,0.37621739506721497
1717003858558760000,1.903760009765625,0.7276155352592468,3.276057720184326,0.490259051322937
1717003858568425500,1.913425537109375,0.866696834564209,3.3410325050354004,0.6004647016525269
1717003858578091000,1.923091064453125,0.9986584782600403,3.1858372688293457,0.7832088470458984
1717003858587756500,1.932756591796875,1.0924062728881836,2.998035430908203,1.003577470779419
1717003858597422000,1.942422119140625,1.1918890476226807,2.7662811279296875,1.13889741897583
1717003858607087600,1.952087646484375,1.0982568264007568,2.0504589080810547,1.241750717163086
1717003858616753200,1.961753173828125,0.9683135151863098,0.7288904190063477,1.1814830303192139
1717003858626418700,1.971418701171875,0.9844962358474731,-1.0261926651000977,0.9305216073989868
1717003858636084200,1.981084228515625,1.0514428615570068,-2.828873634338379,0.5014586448669434
1717003858645749800,1.990749755859375,1.1463857889175415,-4.43891716003418,-0.19723272323608398
1717003858655415300,2.000415283203125,1.1991777420043945,-6.237626075744629,-0.6616537570953369
1717003858665080800,2.010080810546875,1.2306103706359863,-8.222102165222168,-0.6681828498840332
1717003858674746400,2.019746337890625,1.3924603462219238,-9.833407402038574,-0.49172401428222656
1717003858684412000,2.029411865234375,1.501920461654663,-10.83491039276123,-0.38288259506225586
1717003858694077400,2.039077392578125,1.115530252456665,-10.400856971740723,-0.6527509689331055
1717003858703743000,2.048742919921875,0.14935064315795898,-8.865068435668945,-1.2883164882659912
1717003858713408500,2.058408447265625,-3.190119743347168,-6.557121276855469,-2.2406797409057617
1717003858723074000,2.068073974609375,-4.6866455078125,-4.219347953796387,-2.636824131011963
1717003858732739600,2.077739501953125,-4.616969585418701,-2.4223413467407227,-2.409961223602295
1717003858742405000,2.087405029296875,-3.838233470916748,-1.2021102905273438,-2.0092742443084717
1717003858752070700,2.097070556640625,-2.9762866497039795,-0.3949441909790039,-1.6773321628570557
1717003858761736200,2.106736083984375,-2.2884531021118164,0.09025096893310547,-1.5409374237060547
1717003858771401700,2.116401611328125,-1.7095434665679932,0.33112144470214844,-1.6271185874938965
1717003858781067300,2.1260673828125,-1.1390056610107422,0.48810482025146484,-1.8842692375183105
1717003858790732800,2.13573291015625,-0.9342019557952881,0.6541500091552734,-2.228527069091797
1717003858800398300,2.1453984375,-1.1817792654037476,0.7705106735229492,-2.4789700508117676
1717003858810064000,2.15506396484375,-1.6538194417953491,0.7963027954101562,-2.585545539855957
1717003858819729400,2.1647294921875,-2.217498540878296,0.7419538497924805,-2.5423316955566406
1717003858829395000,2.17439501953125,-2.5175633430480957,0.705078125,-2.4168004989624023
1717003858839060500,2.184060546875,-2.4021644592285156,0.7101011276245117,-2.300630569458008
1717003858848726000,2.19372607421875,-2.032709836959839,0.6755342483520508,-2.2205567359924316
1717003858858391600,2.2033916015625,-1.534134864807129,0.5796680450439453,-2.1975936889648438
1717003858868057000,2.21305712890625,-1.0069057941436768,0.45599937438964844,-2.2229056358337402
1717003858877722600,2.22272265625,-0.43277907371520996,0.37711048126220703,-2.2267322540283203
1717003858887388200,2.23238818359375,0.1846097707748413,0.3619499206542969,-2.1650118827819824
1717003858897053700,2.2420537109375,0.7891250848770142,0.39272308349609375,-2.0301952362060547
1717003858906719200,2.25171923828125,1.2785191535949707,0.44689178466796875,-1.8729290962219238
1717003858916384800,2.261384765625,1.6569000482559204,0.4871969223022461,-1.7145366668701172
1717003858926050300,2.27105029296875,1.9445127248764038,0.5140151977539062,-1.5605497360229492
1717003858935715800,2.2807158203125,2.1634342670440674,0.5504446029663086,-1.432708740234375
1717003858945381400,2.29038134765625,2.337519407272339,0.5975856781005859,-1.3151626586914062
1717003858955047000,2.300046875,2.4791955947875977,0.6564178466796875,-1.2057013511657715
1717003858964712400,2.30971240234375,2.55732798576355,0.6789436340332031,-1.0955147743225098
1717003858974378000,2.3193779296875,2.5641016960144043,0.7293949127197266,-1.049994945526123
1717003858984043500,2.32904345703125,2.511995792388916,0.7671680450439453,-1.01751708984375
1717003858993709000,2.338708984375,2.2997536659240723,0.7516260147094727,-0.9297409057617188
1717003859003374600,2.34837451171875,1.9048850536346436,0.6724491119384766,-0.7797455787658691
1717003859013040000,2.3580400390625,1.4059590101242065,0.5596323013305664,-0.5763392448425293
1717003859022705700,2.36770556640625,0.8801554441452026,0.47266578674316406,-0.3533658981323242
1717003859032371200,2.37737109375,0.4321548640727997,0.4180126190185547,-0.17177104949951172
1717003859042036700,2.38703662109375,0.13969939947128296,0.3877086639404297,-0.053299903869628906
1717003859051702300,2.396702392578125,0.010636091232299805,0.36704158782958984,0.00879669189453125
1717003859061367800,2.406367919921875,0.018663465976715088,0.3683204650878906,0.05113983154296875
1717003859071033300,2.416033447265625,0.0871971845626831,0.3780174255371094,0.09995746612548828
1717003859080699000,2.425698974609375,0.16220635175704956,0.4217357635498047,0.16998720169067383
1717003859090364400,2.435364501953125,0.21860015392303467,0.5197353363037109,0.23600339889526367
1717003859100030000,2.445030029296875,0.24408292770385742,0.6858797073364258,0.2635078430175781
1717003859109695500,2.454695556640625,0.215334951877594,0.7960643768310547,0.21880483627319336
1717003859119361000,2.464361083984375,0.1298983097076416,0.971527099609375,0.10994958877563477
1717003859129026600,2.474026611328125,-0.031321823596954346,1.1330466270446777,-0.09174823760986328
1717003859138692000,2.483692138671875,-0.22172939777374268,1.22947359085083,-0.3157176971435547
1717003859148357400,2.493357421875,-0.35133713483810425,1.221519947052002,-0.5195250511169434
1717003859158023200,2.503023193359375,-0.35754698514938354,1.115973949432373,-0.6782026290893555
1717003859167688700,2.512688720703125,-0.262123703956604,0.9549994468688965,-0.8013339042663574
1717003859177354200,2.522354248046875,-0.12789899110794067,0.744023323059082,-0.8800797462463379
1717003859187019500,2.53201953125,0.016337156295776367,0.4803934097290039,-0.9349250793457031
1717003859196685300,2.541685302734375,0.15297356247901917,0.15663623809814453,-0.9602556228637695
1717003859206350800,2.551350830078125,0.23465792834758759,-0.1978130340576172,-0.9289445877075195
1717003859216016100,2.56101611328125,0.2072736769914627,-0.5529861450195312,-0.8130135536193848
1717003859225681700,2.570681640625,0.030339092016220093,-0.8512229919433594,-0.5905914306640625
1717003859235347500,2.580347412109375,-0.29969120025634766,-1.0101709365844727,-0.2807002067565918
1717003859245013000,2.590012939453125,-0.799587607383728,-0.9796237945556641,0.07367753982543945
1717003859254678300,2.59967822265625,-1.238669991493225,-0.7502269744873047,0.40329885482788086
1717003859264344000,2.609343994140625,-1.3661824464797974,-0.36793041229248047,0.6171407699584961
1717003859274009600,2.619009521484375,-1.2090247869491577,0.04809856414794922,0.727729082107544
1717003859283675000,2.6286748046875,-0.9231723546981812,0.3773193359375,0.8141698837280273
1717003859293340400,2.63834033203125,-0.630887508392334,0.5836639404296875,0.8582894802093506
1717003859303006200,2.648006103515625,-0.40586233139038086,0.6439695358276367,0.7952096462249756
1717003859312671700,2.657671630859375,-0.25440460443496704,0.5325155258178711,0.6490333080291748
1717003859322337000,2.6673369140625,-0.1433846354484558,0.2838764190673828,0.4448223114013672
1717003859332002600,2.67700244140625,-0.051428645849227905,-0.04614067077636719,0.2006239891052246
1717003859341668000,2.686668212890625,0.024182185530662537,-0.4212799072265625,-0.07215404510498047
1717003859351333600,2.696333740234375,0.10218435525894165,-0.7810287475585938,-0.33461761474609375
1717003859360999200,2.705999267578125,0.1832486093044281,-1.0980710983276367,-0.5463600158691406
1717003859370664700,2.715664794921875,0.23838484287261963,-1.2928733825683594,-0.6522445678710938
1717003859380330200,2.725330322265625,0.24397027492523193,-1.305624008178711,-0.6131801605224609
1717003859389995800,2.734995849609375,0.2115059792995453,-1.1843299865722656,-0.47573184967041016
1717003859399661300,2.744661376953125,0.16497802734375,-0.9940156936645508,-0.30692052841186523
1717003859409326800,2.754326904296875,0.10905763506889343,-0.7709836959838867,-0.13758039474487305
1717003859418992400,2.763992431640625,0.03526866436004639,-0.5324802398681641,0.009079933166503906
1717003859428658000,2.773657958984375,-0.06901383399963379,-0.27204227447509766,0.12471222877502441
1717003859438323500,2.783323486328125,-0.19625723361968994,0.009340286254882812,0.1993722915649414
1717003859447989000,2.792989013671875,-0.35138654708862305,0.29381561279296875,0.20005178451538086
1717003859457654500,2.802654541015625,-0.5281420946121216,0.535710334777832,0.14274096488952637
1717003859467320000,2.812320068359375,-0.6984990835189819,0.7024650573730469,0.029384374618530273
1717003859476985600,2.821985595703125,-0.851716935634613,0.7737865447998047,-0.1433262825012207
1717003859486651100,2.831651123046875,-0.982372522354126,0.7765579223632812,-0.4083387851715088
1717003859496316700,2.841316650390625,-1.1072413921356201,0.7389287948608398,-0.7580595016479492
1717003859505982200,2.850982177734375,-1.2138830423355103,0.6981401443481445,-1.1678965091705322
1717003859515647700,2.860647705078125,-1.3058468103408813,0.6631250381469727,-1.5839037895202637
1717003859525313300,2.870313232421875,-1.3476351499557495,0.6319169998168945,-1.9267261028289795
1717003859534978800,2.879978759765625,-1.3013485670089722,0.6165332794189453,-2.1527724266052246
1717003859544644400,2.889644287109375,-1.1559380292892456,0.6000595092773438,-2.2886526584625244
1717003859554310000,2.899309814453125,-0.9312843680381775,0.5855245590209961,-2.0890817642211914
1717003859563975400,2.908975341796875,-0.7892159223556519,0.5985269546508789,-1.698394536972046
1717003859573641000,2.918640869140625,-0.8533375263214111,0.7313480377197266,-1.2530603408813477
1717003859583306500,2.928306396484375,-0.9790277481079102,0.7709321975708008,-0.8912956714630127
1717003859592972000,2.937971923828125,-1.0206754207611084,0.6523351669311523,-0.560711145401001
1717003859602637600,2.947637451171875,-0.9296425580978394,0.41382503509521484,-0.34358859062194824
1717003859612303000,2.95730322265625,1.1890034675598145,0.43702220916748047,-0.17451763153076172
1717003859621968600,2.96696875,1.4678781032562256,0.12018680572509766,-0.24159789085388184
1717003859631634200,2.97663427734375,1.8566042184829712,-0.14325428009033203,-0.08404111862182617
1717003859641299700,2.9862998046875,2.0142481327056885,-0.3841981887817383,0.15581655502319336
1717003859650965200,2.99596533203125,1.7966388463974,-0.6638050079345703,0.3891716003417969
1717003859660630800,3.005630859375,1.5552973747253418,-0.8219318389892578,0.6123607158660889
1717003859670296300,3.01529638671875,1.3178551197052002,-0.9314594268798828,0.7360341548919678
1717003859679961900,3.0249619140625,0.9000879526138306,-1.011077880859375,0.832568883895874
1717003859689627400,3.03462744140625,0.6305388808250427,-1.047846794128418,0.8401107788085938
1717003859699293000,3.04429296875,0.5214328169822693,-1.1456174850463867,0.9018604755401611
1717003859708958500,3.05395849609375,0.380898654460907,-1.3634090423583984,1.0242486000061035
1717003859718624000,3.0636240234375,0.08008116483688354,-1.5517120361328125,1.0738930702209473
1717003859728289500,3.07328955078125,-0.34331560134887695,-1.611201286315918,0.95609450340271
1717003859737955000,3.082955078125,-0.7992923259735107,-1.4694137573242188,0.5890724658966064
1717003859747620600,3.09262060546875,-1.082866907119751,-1.162022590637207,-0.016203880310058594
1717003859757286100,3.1022861328125,-1.1644023656845093,-0.8367986679077148,-0.6922500133514404
1717003859766951700,3.11195166015625,-1.016616702079773,-0.6661930084228516,-1.2581019401550293
1717003859776617200,3.1216171875,-0.5575875639915466,-0.7533750534057617,-1.6460918188095093
1717003859786282800,3.13128271484375,-0.18339800834655762,-1.1417436599731445,-1.817246913909912
1717003859795948300,3.1409482421875,-0.15334206819534302,-1.614842414855957,-1.9135921001434326
1717003859805613800,3.15061376953125,-0.5234010219573975,-1.9802284240722656,-2.1258535385131836
1717003859815279400,3.160279296875,-1.3743736743927002,-1.8836307525634766,-1.902553677558899
1717003859824945000,3.16994482421875,-2.312203884124756,-1.3488941192626953,-1.7629843950271606
1717003859834610400,3.1796103515625,-2.7530040740966797,-0.5801143646240234,-1.960235834121704
1717003859844276000,3.18927587890625,-2.529644012451172,0.04115867614746094,-2.3177542686462402
1717003859853941500,3.19894140625,-1.8755950927734375,0.24644088745117188,-2.302917718887329
1717003859863607000,3.20860693359375,-1.2026065587997437,0.2269458770751953,-2.181072950363159
1717003859873272600,3.2182724609375,-0.6122968196868896,0.16803646087646484,-2.141019344329834
1717003859882938000,3.227938232421875,-0.13069504499435425,0.2402324676513672,-2.118380546569824
1717003859892603600,3.237603759765625,0.08634229004383087,0.2045726776123047,-1.9740270376205444
1717003859902269200,3.247269287109375,0.1876876950263977,0.515538215637207,-1.8559787273406982
1717003859911934700,3.256934814453125,0.39815688133239746,0.7502241134643555,-1.7008626461029053
1717003859921600300,3.266600341796875,0.7306658625602722,0.9936370849609375,-1.6398063898086548
1717003859931265800,3.276265869140625,1.1526501178741455,1.2775583267211914,-1.7790271043777466
1717003859940931300,3.285931396484375,1.6140992641448975,1.5469093322753906,-2.143514394760132
1717003859950596900,3.295596923828125,2.024578094482422,1.7824149131774902,-2.583515167236328
1717003859960262400,3.305262451171875,2.3054723739624023,1.8872065544128418,-2.9689810276031494
1717003859969928000,3.314927978515625,2.394023895263672,1.9789490699768066,-3.0114665031433105
1717003859979593500,3.324593505859375,2.2746872901916504,2.1693496704101562,-2.8181705474853516
1717003859989259000,3.334259033203125,1.994374394416809,2.391752243041992,-2.56870698928833
1717003859998924500,3.343924560546875,1.5983712673187256,2.5760865211486816,-2.2833757400512695
1717003860008590000,3.353590087890625,1.11570143699646,2.8011183738708496,-2.0532922744750977
1717003860018255600,3.363255615234375,0.5309692025184631,2.980360984802246,-1.872053861618042
1717003860027921200,3.372921142578125,-0.2124086618423462,3.063778877258301,-1.6422433853149414
1717003860037586700,3.382586669921875,-1.2225176095962524,3.036858081817627,-1.2717249393463135
1717003860047252200,3.392252197265625,-1.8657302856445312,3.015878677368164,-0.9132471084594727
1717003860056917800,3.401917724609375,-1.860409140586853,2.961458206176758,-0.5986562967300415
1717003860066583300,3.411583251953125,-1.5264265537261963,2.7332024574279785,-0.26803767681121826
1717003860076248800,3.421248779296875,-1.08692467212677,2.15394926071167,0.0896141529083252
1717003860085914400,3.430914306640625,-0.6639783978462219,1.1841259002685547,0.44153666496276855
1717003860095580000,3.440579833984375,-0.12613672018051147,-0.358154296875,0.8211557865142822
1717003860105245400,3.450245361328125,0.5138845443725586,-1.9490470886230469,1.1241824626922607
1717003860114911000,3.459910888671875,0.9567649364471436,-3.376728057861328,1.3229191303253174
1717003860124576500,3.469576416015625,1.3256556987762451,-4.581327438354492,1.5085289478302002
1717003860134242000,3.479241943359375,1.6187262535095215,-5.258395195007324,1.6740450859069824
1717003860143907600,3.488907470703125,1.7182600498199463,-4.943233489990234,1.5126020908355713
1717003860153573000,3.498572998046875,1.6459755897521973,-4.161332130432129,1.063286304473877
1717003860163238700,3.50823876953125,1.4870364665985107,-3.2096242904663086,0.557157039642334
1717003860172904200,3.517904296875,1.2632668018341064,-2.209530830383301,0.08990907669067383
1717003860182569700,3.52756982421875,0.9693245887756348,-1.2645206451416016,-0.2795398235321045
1717003860192235300,3.5372353515625,0.5520461797714233,-0.5016508102416992,-0.5301191806793213
1717003860201900800,3.54690087890625,-0.003193385899066925,-0.0399322509765625,-0.6341710090637207
1717003860211566300,3.55656640625,-0.7068721652030945,0.11328506469726562,-0.6237006187438965
1717003860221231900,3.56623193359375,-1.283514380455017,0.028992652893066406,-0.5699725151062012
1717003860230897400,3.5758974609375,-1.5741344690322876,-0.12409782409667969,-0.5298206806182861
1717003860240563000,3.58556298828125,-1.612349271774292,-0.20565414428710938,-0.5217385292053223
1717003860250228500,3.595228515625,-1.497287392616272,-0.21701717376708984,-0.4954354763031006
1717003860259894000,3.60489404296875,-1.371137022972107,-0.21930599212646484,-0.41381382942199707
1717003860269559600,3.6145595703125,-1.3281235694885254,-0.1984415054321289,-0.32241201400756836
1717003860279225000,3.62422509765625,-1.4180786609649658,-0.1416158676147461,-0.27532315254211426
1717003860288890600,3.633890625,-1.5811150074005127,-0.010110855102539062,-0.23782110214233398
1717003860298556200,3.64355615234375,-1.851851224899292,0.2067861557006836,-0.1342935562133789
1717003860308221700,3.6532216796875,-2.1596550941467285,0.5298147201538086,0.03875112533569336
1717003860317887200,3.66288720703125,-2.320173740386963,0.9493789672851562,0.24117612838745117
1717003860327552800,3.672552734375,-2.2277050018310547,1.3857383728027344,0.417773962020874
1717003860337218300,3.68221826171875,-1.910329818725586,1.8039922714233398,0.473339319229126
1717003860346883800,3.6918837890625,-1.5192077159881592,2.219355583190918,0.4883875846862793
1717003860356549400,3.70154931640625,-1.1321640014648438,2.621589183807373,0.40107011795043945
1717003860366215000,3.71121484375,-0.6206424236297607,2.9999451637268066,0.20462751388549805
1717003860375880400,3.72088037109375,0.13409662246704102,3.298647880554199,-0.0457150936126709
1717003860385546000,3.7305458984375,1.1232526302337646,3.5145106315612793,-0.3282887935638428
1717003860395211500,3.74021142578125,2.272498846054077,3.7332916259765625,-0.6588258743286133
1717003860404877300,3.749877197265625,3.5247740745544434,3.889237880706787,-1.0015814304351807
1717003860414542600,3.75954248046875,5.063529014587402,3.982072353363037,-1.3469154834747314
1717003860424208100,3.7692080078125,6.431246280670166,3.790870189666748,-1.5550310611724854
1717003860433874000,3.7788740234375,6.946918487548828,3.4702534675598145,-1.749894380569458
1717003860443539200,3.788539306640625,6.745505332946777,3.025465965270996,-1.895392656326294
1717003860453204700,3.798204833984375,5.71470832824707,2.3041367530822754,-1.9263784885406494
1717003860462870500,3.80787060546875,4.722769737243652,1.3701739311218262,-1.9251158237457275
1717003860472536000,3.8175361328125,4.094290733337402,0.2848639488220215,-1.735459327697754
1717003860482201600,3.82720166015625,3.7820236682891846,-0.9732165336608887,-1.3417108058929443
1717003860491867100,3.8368671875,3.3939497470855713,-2.0655112266540527,-0.8110735416412354
1717003860501532700,3.84653271484375,2.764086961746216,-2.830254077911377,-0.24737119674682617
1717003860511198200,3.8561982421875,2.6439270973205566,-3.325939655303955,0.3155331611633301
1717003860520863700,3.86586376953125,3.1887128353118896,-3.4763779640197754,0.7768955230712891
1717003860530529300,3.875529296875,4.029528617858887,-3.379317283630371,1.1071677207946777
1717003860540194800,3.88519482421875,4.850879192352295,-3.1726818084716797,1.3972759246826172
1717003860549860400,3.8948603515625,5.283280372619629,-2.8910999298095703,1.7137354612350464
1717003860559526000,3.90452587890625,5.216634750366211,-2.6209850311279297,1.9660395383834839
1717003860569191400,3.91419140625,4.853113651275635,-2.366189479827881,2.083547592163086
1717003860578857000,3.92385693359375,4.483811378479004,-2.1281704902648926,2.0036466121673584
1717003860588522500,3.9335224609375,3.9996042251586914,-1.8167791366577148,1.6708883047103882
1717003860598188000,3.94318798828125,3.5392842292785645,-1.3744900226593018,1.1759214401245117
1717003860607853600,3.952853515625,3.190366268157959,-0.8958845138549805,0.6931047439575195
1717003860617519000,3.96251904296875,2.6281180381774902,-0.4843151569366455,0.33231019973754883
1717003860627184600,3.9721845703125,1.9072070121765137,-0.1729118824005127,0.11351847648620605
1717003860636850200,3.98185009765625,1.1958417892456055,0.03175020217895508,0.03976154327392578
1717003860646515700,3.991515625,0.6795291900634766,0.06654644012451172,0.15847206115722656
1717003860656181200,4.00118115234375,0.23006916046142578,0.06711649894714355,0.5637528896331787
1717003860665846800,4.0108466796875,0.22957611083984375,-0.03531157970428467,1.150490641593933
1717003860675512300,4.02051220703125,0.2621440887451172,-0.18108513951301575,1.8576081991195679
1717003860685177900,4.030177734375,-0.36049461364746094,-0.43549513816833496,2.4051058292388916
1717003860694843400,4.039843505859375,-0.9761409759521484,-0.7002783417701721,2.4217100143432617
1717003860704509000,4.049509033203125,-0.8453245162963867,-0.735659122467041,1.8960498571395874
1717003860714174500,4.059174560546875,-0.4628944396972656,-0.3874480724334717,1.1677387952804565
1717003860723840000,4.068840087890625,-0.34722328186035156,0.26015424728393555,0.6866387128829956
1717003860733505500,4.078505615234375,-0.30303478240966797,0.8457373380661011,0.6462757587432861
1717003860743171000,4.088171142578125,-0.3209724426269531,1.161681890487671,0.8468329906463623
1717003860752836600,4.097836669921875,-0.6323709487915039,1.0709865093231201,1.1161775588989258
1717003860762502100,4.107502197265625,-0.9831438064575195,0.6812841892242432,1.2747317552566528
1717003860772167700,4.117167724609375,-1.4384517669677734,0.32452917098999023,1.127683401107788
1717003860781833200,4.126833251953125,-1.6996173858642578,0.1095438003540039,0.6326841115951538
1717003860791498800,4.136498779296875,-1.8961896896362305,0.11403226852416992,-0.022830724716186523
1717003860801164300,4.146164306640625,-2.519124984741211,0.2924530506134033,-0.5106891393661499
1717003860810829800,4.155829833984375,-3.073733329772949,0.5291647911071777,-0.8576604127883911
1717003860820495400,4.165495361328125,-3.2306690216064453,0.6125588417053223,-1.2048182487487793
1717003860830161000,4.175160888671875,-3.488157272338867,0.896977424621582,-1.4603303670883179
1717003860839826400,4.184826416015625,-3.338644027709961,1.2008056640625,-1.5770375728607178
1717003860849492000,4.194491943359375,-3.196803092956543,1.0829358100891113,-1.2526863813400269
1717003860859157500,4.204157470703125,-3.5634679794311523,0.8159079551696777,-1.0025922060012817
1717003860868823000,4.213822998046875,-3.8526296615600586,0.8683252334594727,-0.36762166023254395
1717003860878488600,4.223488525390625,-4.0475358963012695,1.213442325592041,0.15789902210235596
1717003860888154000,4.233154052734375,-4.320367813110352,1.6629443168640137,-0.3254506587982178
1717003860897819600,4.242819580078125,-4.990506172180176,2.4316868782043457,-0.9278002977371216
1717003860907485400,4.2524853515625,-5.270432472229004,3.3434219360351562,-1.6657178401947021
1717003860917150700,4.262150634765625,-5.4750471115112305,3.7510151863098145,-2.459280252456665
1717003860926816500,4.27181640625,-5.8473405838012695,3.7421140670776367,-2.9287257194519043
1717003860936482000,4.28148193359375,-6.00106143951416,3.6670327186584473,-2.8604114055633545
1717003860946147600,4.291147705078125,-6.358796119689941,3.707995891571045,-2.4477968215942383
1717003860955813000,4.300813232421875,-6.613674163818359,3.579453945159912,-1.75902259349823
1717003860965478700,4.310478759765625,-6.676606178283691,3.643095016479492,-1.2327691316604614
1717003860975144200,4.320144287109375,-6.604046821594238,3.7690024375915527,-0.8380277156829834
1717003860984809700,4.329809814453125,-6.266144752502441,4.031856536865234,-0.8274276256561279
1717003860994475300,4.339475341796875,-5.791298866271973,4.076908588409424,-0.863693356513977
1717003861004140800,4.349140869140625,-5.361557960510254,3.950695514678955,-0.9096336364746094
1717003861013806300,4.358806396484375,-4.751771926879883,3.8253958225250244,-0.9509806632995605
1717003861023471900,4.368471923828125,-4.17469596862793,3.769991874694824,-0.9541382789611816
1717003861033137400,4.378137451171875,-3.657482147216797,3.714031934738159,-0.9144027233123779
1717003861042803000,4.387802978515625,-3.099545478820801,3.6700491905212402,-0.7929096221923828
1717003861052468500,4.397468505859375,-2.4323225021362305,3.630490779876709,-0.6195008754730225
1717003861062134000,4.407134033203125,-1.8686962127685547,3.583568811416626,-0.4592456817626953
1717003861071799600,4.416799560546875,-1.4064245223999023,3.484166145324707,-0.37192320823669434
1717003861081465000,4.426465087890625,-0.9892644882202148,3.402745485305786,-0.33480381965637207
1717003861091130600,4.436130615234375,-0.6979970932006836,3.355785846710205,-0.3415346145629883
1717003861100796200,4.445796142578125,-0.45984745025634766,3.2869656085968018,-0.25580692291259766
1717003861110461700,4.455461669921875,-0.26876068115234375,3.176924467086792,0.0007798671722412109
1717003861120127200,4.465127197265625,-0.12367439270019531,3.076348066329956,0.34859347343444824
1717003861129792800,4.474792724609375,0.2134695053100586,3.0322203636169434,0.6939053535461426
1717003861139458300,4.484458251953125,0.5895271301269531,3.071650505065918,0.9706254005432129
1717003861149123800,4.494123779296875,0.8406190872192383,3.194474220275879,1.1134629249572754
1717003861158789400,4.503789306640625,0.9133090972900391,3.3647470474243164,1.1212799549102783
1717003861168455000,4.513454833984375,0.8385591506958008,3.4904041290283203,1.0011775493621826
1717003861178120400,4.523120361328125,0.7141408920288086,3.5173869132995605,0.8461556434631348
1717003861187786000,4.532785888671875,0.4943523406982422,3.436795711517334,0.7296967506408691
1717003861197451500,4.542451416015625,0.13853073120117188,3.269536018371582,0.6749308109283447
1717003861207117000,4.552116943359375,-0.23780155181884766,3.04286789894104,0.6778359413146973
1717003861216782600,4.561782470703125,-0.43003082275390625,2.771789312362671,0.7458195686340332
1717003861226448100,4.5714482421875,-0.34621334075927734,2.495025634765625,0.8816738128662109
1717003861236114000,4.581114013671875,-0.17041301727294922,2.2147796154022217,1.1034855842590332
1717003861245779200,4.590779296875,-0.06342220306396484,1.9537272453308105,1.3822429180145264
1717003861255444700,4.60044482421875,0.07505512237548828,1.7497261762619019,1.6827588081359863
1717003861265110500,4.610110595703125,0.23085308074951172,1.5807868242263794,2.014612913131714
1717003861274776000,4.619776123046875,0.3957061767578125,1.4579613208770752,2.309859275817871
1717003861284441600,4.629441650390625,0.5463404655456543,1.3428013324737549,2.5808727741241455
1717003861294107100,4.639107177734375,0.6814131736755371,1.2691211700439453,2.8046486377716064
1717003861303772700,4.648772705078125,0.7966976165771484,1.2148900032043457,2.9798684120178223
1717003861313438200,4.658438232421875,0.9347982406616211,1.2114026546478271,3.07446551322937
1717003861323103700,4.668103759765625,1.1044034957885742,1.226149559020996,3.130455732345581
1717003861332769300,4.677769287109375,1.3160057067871094,1.2933712005615234,3.1701819896698
1717003861342434800,4.687434814453125,1.5149993896484375,1.3706812858581543,3.1470823287963867
1717003861352100400,4.697100341796875,1.6828317642211914,1.373415470123291,3.037872314453125
1717003861361766000,4.706765869140625,1.8182909488677979,1.3853044509887695,2.8305113315582275
1717003861371431400,4.716431396484375,1.933969497680664,1.4756836891174316,2.683344602584839
1717003861381097000,4.726096923828125,2.0008130073547363,1.616544246673584,2.5660805702209473
1717003861390762500,4.735762451171875,2.0918967723846436,1.7208833694458008,2.3981900215148926
1717003861400428000,4.745427978515625,2.1951241493225098,1.7734131813049316,2.1130547523498535
1717003861410093600,4.755093505859375,2.3092947006225586,1.7237682342529297,1.743962287902832
1717003861419759000,4.764759033203125,2.394467353820801,1.6023554801940918,1.4090335369110107
1717003861429424600,4.774424560546875,2.3490214347839355,1.4623174667358398,1.096064567565918
1717003861439090200,4.784090087890625,2.2032947540283203,1.209193229675293,0.835939884185791
1717003861448755700,4.793755615234375,1.9456276893615723,0.9361763000488281,0.5186758041381836
1717003861458421200,4.803421142578125,1.608547329902649,0.6788625717163086,0.18785619735717773
1717003861468086800,4.813086669921875,1.2151671648025513,0.5649862289428711,0.008791923522949219
1717003861477752300,4.82275244140625,0.6596996188163757,0.7024316787719727,-0.014973640441894531
1717003861487417900,4.83241796875,-0.12459045648574829,0.8614606857299805,-0.015773534774780273
1717003861497083400,4.84208349609375,-0.8825876712799072,1.0675687789916992,0.0035877227783203125
1717003861506749000,4.8517490234375,-1.5404555797576904,1.2479381561279297,0.022657155990600586
1717003861516414500,4.86141455078125,-2.1208291053771973,1.477271556854248,0.1417984962463379
1717003861526080000,4.871080078125,-2.7002925872802734,1.7703680992126465,0.28827619552612305
1717003861535745500,4.88074560546875,-3.220205068588257,2.1455788612365723,0.45280027389526367
1717003861545411000,4.8904111328125,-3.6173853874206543,2.605536460876465,0.6141815185546875
1717003861555076600,4.90007666015625,-3.7873244285583496,3.0713696479797363,0.6872951984405518
1717003861564742100,4.9097421875,-3.702327251434326,3.496032238006592,0.6643311977386475
1717003861574407700,4.91940771484375,-3.5087623596191406,3.8550777435302734,0.5752856731414795
1717003861584073200,4.9290732421875,-3.2730302810668945,4.055012226104736,0.47504520416259766
1717003861593738800,4.93873876953125,-2.965662956237793,4.071786403656006,0.3800170421600342
1717003861603404300,4.948404296875,-2.616731643676758,3.856687545776367,0.29555845260620117
1717003861613069800,4.95806982421875,-2.2427053451538086,3.355009078979492,0.13855814933776855
1717003861622735400,4.9677353515625,-1.8711438179016113,2.5277886390686035,-0.15006756782531738
1717003861632401200,4.977401123046875,-1.476223111152649,1.4063129425048828,-0.5640237331390381
1717003861642066700,4.987066650390625,-1.0368919372558594,-0.01652050018310547,-1.0651824474334717
1717003861651732200,4.996732177734375,-0.6517150402069092,-1.5920906066894531,-1.5923969745635986
1717003861661397800,5.006397705078125,-0.5280660390853882,-3.1537046432495117,-2.1807758808135986
1717003861671063300,5.016063232421875,-1.0013835430145264,-4.159470558166504,-2.7140414714813232
1717003861680728800,5.025728759765625,-1.5293145179748535,-4.061246871948242,-2.9638524055480957
1717003861690394400,5.035394287109375,-1.5926884412765503,-3.330624580383301,-2.845552444458008
1717003861700060000,5.045059814453125,-1.2871140241622925,-2.408601760864258,-2.4668054580688477
1717003861709725400,5.054725341796875,-0.8218012452125549,-1.4650211334228516,-1.9436335563659668
1717003861719391000,5.064390869140625,-0.3324112892150879,-0.5683012008666992,-1.3727569580078125
1717003861729056500,5.074056396484375,0.11388634145259857,0.25742435455322266,-0.7929089069366455
1717003861738722000,5.08372216796875,0.5219565033912659,0.9854373931884766,-0.2572052478790283
1717003861748387600,5.0933876953125,0.8977012038230896,1.6386384963989258,0.20752549171447754
1717003861758053000,5.10305322265625,1.2359145879745483,2.2031469345092773,0.569965124130249
1717003861767718700,5.11271875,1.5559055805206299,2.6881699562072754,0.8105409145355225
1717003861777384200,5.12238427734375,1.8380359411239624,3.1451497077941895,0.9397256374359131
1717003861787049700,5.1320498046875,2.090045928955078,3.5779595375061035,1.0043702125549316
1717003861796715300,5.14171533203125,2.333202838897705,3.9554800987243652,1.0269639492034912
1717003861806380800,5.151380859375,2.5723490715026855,4.290268898010254,1.0369822978973389
1717003861816046300,5.16104638671875,2.4448633193969727,4.466470241546631,1.0663073062896729
1717003861825711900,5.1707119140625,0.3547484874725342,4.185577869415283,0.8228857517242432
1717003861835377400,5.18037744140625,-0.28320932388305664,3.9186224937438965,0.3318154811859131
1717003861845043000,5.19004296875,0.1287384033203125,3.5678553581237793,-0.07516145706176758
1717003861854708500,5.19970849609375,1.0658130645751953,3.1580820083618164,-0.34825587272644043
1717003861864374000,5.2093740234375,1.9995734691619873,2.6237831115722656,-0.45274806022644043
1717003861874039600,5.21903955078125,2.751793384552002,1.9797677993774414,-0.4308316707611084
1717003861883705000,5.228705078125,3.607578992843628,1.1648445129394531,-0.2753298282623291
1717003861893370600,5.23837060546875,4.497989654541016,0.28691720962524414,-0.08893513679504395
1717003861903036200,5.2480361328125,5.272491455078125,-0.4184150695800781,0.07910370826721191
1717003861912702000,5.257701904296875,5.570992469787598,-0.9092879295349121,0.21171331405639648
1717003861922367200,5.2673671875,5.265271186828613,-1.222306251525879,0.28380513191223145
1717003861932033000,5.277032958984375,3.9800095558166504,-1.4791607856750488,0.46182823181152344
1717003861941698600,5.286698486328125,2.016403913497925,-1.8765335083007812,0.6900982856750488
1717003861951364000,5.296364013671875,0.8580694198608398,-2.4232239723205566,0.8794305324554443
1717003861961029600,5.306029541015625,1.2238550186157227,-2.9960713386535645,1.0506665706634521
1717003861970695200,5.315695068359375,2.309204578399658,-3.311751365661621,1.2184832096099854
1717003861980360700,5.325360595703125,3.045896053314209,-3.3606653213500977,1.5137147903442383
1717003861990026200,5.335026123046875,3.3008737564086914,-3.237152099609375,1.6822762489318848
1717003861999691800,5.34469189453125,3.395697593688965,-2.906005382537842,1.5258930921554565
1717003862009357300,5.354357421875,3.7038369178771973,-2.450777053833008,1.0407588481903076
1717003862019022800,5.36402294921875,4.365487098693848,-1.9868593215942383,0.48666882514953613
1717003862028688400,5.3736884765625,4.54827880859375,-1.4483771324157715,-0.037317752838134766
1717003862038354000,5.38335400390625,3.7965660095214844,-0.8529529571533203,-0.387037992477417
1717003862048019500,5.39301953125,3.114044666290283,-0.5008516311645508,-0.49457669258117676
1717003862057685000,5.40268505859375,2.7921996116638184,-0.3643980026245117,-0.44684839248657227
1717003862067350500,5.4123505859375,2.766735553741455,-0.2887895107269287,-0.369293212890625
1717003862077016000,5.42201611328125,2.638460159301758,-0.18108868598937988,-0.3221302032470703
1717003862086681600,5.431681640625,1.8948278427124023,-0.1353135108947754,-0.2437877655029297
1717003862096347100,5.44134716796875,0.9643306732177734,-0.3442106246948242,-0.06238293647766113
1717003862106012700,5.4510126953125,0.4420623779296875,-0.7704741954803467,0.13567233085632324
1717003862115678200,5.46067822265625,0.2560606002807617,-1.2451162338256836,0.19729256629943848
1717003862125343700,5.47034375,0.2656688690185547,-1.6477771997451782,0.2512626647949219
1717003862135009300,5.48000927734375,0.24210834503173828,-1.971143364906311,0.3795797824859619
1717003862144675000,5.489675048828125,0.21749591827392578,-2.11277437210083,0.4966779947280884
1717003862154340400,5.49934033203125,0.42291831970214844,-2.0202834606170654,0.5418113470077515
1717003862164006100,5.509006103515625,0.8145389556884766,-1.7639167308807373,0.5431622266769409
1717003862173671700,5.518671630859375,0.9806623458862305,-1.2728627920150757,0.5066347122192383
1717003862183337200,5.528337158203125,0.9956178665161133,-0.6349013447761536,0.42377185821533203
1717003862193002800,5.538002685546875,1.0061912536621094,0.0018033236265182495,0.32743680477142334
1717003862202668300,5.547668212890625,0.5303659439086914,0.6439220905303955,0.19735372066497803
1717003862212333800,5.557333740234375,-0.2532386779785156,1.0244638919830322,-0.0020170211791992188
1717003862221999400,5.566999267578125,-1.0048093795776367,1.0561870336532593,-0.22263062000274658
1717003862231665000,5.576664794921875,-1.4833049774169922,0.9120832681655884,-0.34822094440460205
1717003862241330400,5.586330322265625,-1.8039054870605469,0.7648717164993286,-0.5293532609939575
1717003862250996000,5.595995849609375,-1.9317474365234375,0.5120480060577393,-0.717355489730835
1717003862260661500,5.60566162109375,-1.945718765258789,0.3297288417816162,-0.8160719871520996
1717003862270327000,5.6153271484375,-2.139981269836426,0.2615351676940918,-0.878600001335144
1717003862279992600,5.62499267578125,-2.164555549621582,0.40989089012145996,-1.0662213563919067
1717003862289658000,5.634658203125,-2.116483688354492,0.7946109771728516,-1.346337080001831
1717003862299323600,5.64432373046875,-2.0655717849731445,1.1027727127075195,-1.7128654718399048
1717003862308989200,5.6539892578125,-2.21810245513916,1.365962028503418,-1.6696476936340332
1717003862318654700,5.66365478515625,-2.187380790710449,1.2205939292907715,-1.776708722114563
1717003862328320300,5.6733203125,-2.4829282760620117,1.2352356910705566,-1.5473015308380127
1717003862337985800,5.68298583984375,-2.696597099304199,1.3631796836853027,-1.3682572841644287
1717003862347651600,5.692651611328125,-2.9578628540039062,1.556856632232666,-1.3464454412460327
1717003862357316900,5.70231689453125,-3.2558717727661133,1.6653928756713867,-1.2844209671020508
1717003862366982700,5.711982666015625,-3.55226993560791,1.8305535316467285,-1.13820219039917
1717003862376648200,5.721648193359375,-3.9517507553100586,1.9279029369354248,-0.7779809236526489
1717003862386313700,5.731313720703125,-4.368677139282227,2.0994985103607178,-0.48533475399017334
1717003862395979300,5.740979248046875,-4.553945541381836,2.3194100856781006,-0.3099367618560791
1717003862405644800,5.750644775390625,-4.896222114562988,2.4126365184783936,-0.3040372133255005
1717003862415310300,5.760310302734375,-5.3863019943237305,2.446744680404663,-0.4513530731201172
1717003862424976000,5.769975830078125,-5.600053787231445,2.518883466720581,-0.5036364793777466
1717003862434641400,5.779641357421875,-5.66107177734375,2.657073736190796,-0.4631305932998657
1717003862444307000,5.789306884765625,-5.587393760681152,2.8145720958709717,-0.37703216075897217
1717003862453972500,5.798972412109375,-5.466364860534668,2.8825650215148926,-0.13486075401306152
1717003862463638000,5.808637939453125,-5.221297264099121,2.8518123626708984,0.08919012546539307
1717003862473303600,5.818303466796875,-4.945468902587891,2.754997730255127,0.21171307563781738
1717003862482969000,5.827968994140625,-4.769252777099609,2.6479294300079346,0.2102736234664917
1717003862492634600,5.837634521484375,-4.549420356750488,2.5415334701538086,0.24032163619995117
1717003862502300200,5.847300048828125,-4.139256477355957,2.4184510707855225,0.3985929489135742
1717003862511965700,5.856965576171875,-3.7895374298095703,2.3265557289123535,0.5814883708953857
1717003862521631200,5.86663134765625,-3.4728546142578125,2.258606433868408,0.6347414255142212
1717003862531296800,5.876296875,-2.964090347290039,2.2161953449249268,0.5252923965454102
1717003862540962600,5.885962646484375,-2.9667463302612305,2.2008309364318848,0.298297643661499
1717003862550628000,5.895628173828125,-2.751736640930176,2.1619856357574463,0.0560762882232666
1717003862560293600,5.905293701171875,-2.2800350189208984,2.1034793853759766,-0.044322967529296875
1717003862569959200,5.914959228515625,-1.8785429000854492,2.086019992828369,0.021382808685302734
1717003862579624700,5.924624755859375,-1.6365842819213867,2.144970655441284,0.16078996658325195
1717003862589290200,5.934290283203125,-1.2506694793701172,2.1902832984924316,0.3288908004760742
1717003862598955800,5.943955810546875,-1.0138120651245117,2.3062894344329834,0.48639392852783203
1717003862608621300,5.953621337890625,-0.7261037826538086,2.38860821723938,0.6650922298431396
1717003862618286800,5.963286865234375,-0.3801584243774414,2.4058303833007812,0.9121549129486084
1717003862627952400,5.972952392578125,-0.31286048889160156,2.4202780723571777,1.1662085056304932
1717003862637618000,5.982617919921875,-0.38201427459716797,2.375107765197754,1.335456132888794
1717003862647283500,5.992283447265625,-0.3230171203613281,2.2929091453552246,1.4142688512802124
1717003862656949000,6.001948974609375,-0.4622974395751953,2.150470495223999,1.4067471027374268
1717003862666614500,6.011614501953125,-0.572331428527832,1.968510627746582,1.3218495845794678
1717003862676280000,6.021280029296875,-0.5933704376220703,1.778721570968628,1.20131516456604
1717003862685945600,6.030945556640625,-0.4146003723144531,1.5785157680511475,1.1131622791290283
1717003862695611100,6.040611083984375,-0.1800098419189453,1.412733554840088,1.0791995525360107
1717003862705276700,6.050276611328125,-0.000583648681640625,1.2946207523345947,1.0644261837005615
1717003862714942200,6.059942138671875,0.08639717102050781,1.2310385704040527,1.0573515892028809
1717003862724607700,6.069607666015625,0.105712890625,1.1963672637939453,1.0399856567382812
1717003862734273300,6.079273193359375,0.17238426208496094,1.2088637351989746,1.0357038974761963
1717003862743939000,6.08893896484375,0.2616615295410156,1.2319650650024414,1.0353078842163086
1717003862753604600,6.0986044921875,0.32231712341308594,1.2224522829055786,1.0488700866699219
1717003862763270100,6.108270263671875,0.35758018493652344,1.1913671493530273,1.099452018737793
1717003862772935700,6.117935791015625,0.3660426139831543,1.157189130783081,1.1700153350830078
1717003862782601200,6.127601318359375,1.1185178756713867,0.13534808158874512,1.2128880023956299
1717003862792266800,6.137266845703125,1.3490667343139648,0.12504935264587402,1.5268077850341797
1717003862801932300,6.146932373046875,1.5081868171691895,0.057442665100097656,1.7411847114562988
1717003862811597800,6.156597900390625,1.7477941513061523,-0.09976959228515625,2.00628399848938
1717003862821263400,6.166263427734375,2.263923168182373,0.07065677642822266,2.2062458992004395
1717003862830929000,6.175928955078125,2.5505270957946777,0.10302925109863281,2.315749406814575
1717003862840594400,6.185594482421875,2.437263011932373,0.1651291847229004,2.4102375507354736
1717003862850260000,6.195260009765625,2.122795581817627,0.3089299201965332,2.449068069458008
1717003862859925500,6.204925537109375,2.487558364868164,0.3471097946166992,2.0722544193267822
1717003862869591000,6.214591064453125,2.8847968578338623,0.5931782722473145,1.8651375770568848
1717003862879256600,6.224256591796875,2.9549319744110107,0.3996577262878418,1.6893482208251953
1717003862888922000,6.233922119140625,2.767274856567383,0.24192523956298828,1.6429803371429443
1717003862898587600,6.243587646484375,2.4204156398773193,0.7914524078369141,1.919266939163208
1717003862908253200,6.253253173828125,2.1273908615112305,1.0411462783813477,1.9439914226531982
1717003862917919000,6.2629189453125,2.087538480758667,1.2804675102233887,1.7307348251342773
1717003862927584300,6.272584228515625,2.1664860248565674,1.5737457275390625,1.4508860111236572
1717003862937250000,6.28225,2.5344533920288086,1.7440204620361328,1.07240629196167
1717003862946915600,6.29191552734375,2.9835190773010254,1.7635979652404785,0.6498475074768066
1717003862956581000,6.3015810546875,3.238133668899536,1.6209497451782227,-0.056995391845703125
1717003862966246700,6.31124658203125,3.3602545261383057,1.402200698852539,-0.6888570785522461
1717003862975912200,6.320912109375,3.4258008003234863,0.5475292205810547,-1.384199619293213
1717003862985577700,6.33057763671875,2.979208469390869,-0.2989211082458496,-1.9143247604370117
1717003862995243300,6.3402431640625,2.4290199279785156,-0.7421283721923828,-1.9698448181152344
1717003863004908800,6.34990869140625,1.3593132495880127,-1.229823112487793,-2.0375876426696777
1717003863014574300,6.35957421875,-0.14506030082702637,-1.367201805114746,-1.8637638092041016
1717003863024239900,6.369239990234375,-1.7363708019256592,-0.8050031661987305,-1.299692153930664
1717003863033905400,6.378905517578125,-2.1216342449188232,0.28822803497314453,-0.18098163604736328
1717003863043571000,6.388571044921875,-2.750762701034546,1.4667696952819824,0.7192871570587158
1717003863053236500,6.398236572265625,-3.109755516052246,2.3046751022338867,0.8506360054016113
1717003863062902000,6.407902099609375,-3.1209723949432373,2.5653457641601562,1.1414518356323242
1717003863072567600,6.417567626953125,-2.6914725303649902,2.521027088165283,1.362196922302246
1717003863082233000,6.427233154296875,-2.040605306625366,2.5167722702026367,1.6002936363220215
1717003863091898600,6.436898681640625,-1.4145890474319458,2.3725428581237793,1.5745549201965332
1717003863101564200,6.446564208984375,-1.5318881273269653,2.1718759536743164,1.1736016273498535
1717003863111230000,6.45622998046875,-2.242206335067749,1.7821259498596191,0.989434003829956
1717003863120895500,6.4658955078125,-3.2156193256378174,1.0921587944030762,0.9267942905426025
1717003863130561000,6.47556103515625,-3.6641831398010254,0.7600421905517578,0.6880781650543213
1717003863140226600,6.4852265625,-3.470785140991211,0.07255935668945312,0.2805826663970947
1717003863149892000,6.49489208984375,-2.7713561058044434,-0.4912099838256836,-0.18248343467712402
1717003863159557600,6.5045576171875,-2.049126148223877,-0.7545185089111328,-0.3675966262817383
1717003863169223200,6.51422314453125,-1.6009252071380615,-1.0849981307983398,-0.5438587665557861
1717003863178888700,6.523888671875,-1.5221989154815674,-0.8637151718139648,-0.6147024631500244
1717003863188554200,6.53355419921875,-1.6467411518096924,-0.4178895950317383,-0.7710814476013184
1717003863198219800,6.5432197265625,-1.8986762762069702,-0.09600448608398438,-0.9984161853790283
1717003863207885300,6.55288525390625,-2.067798137664795,0.08454608917236328,-1.0825493335723877
1717003863217550800,6.56255078125,-2.2223432064056396,0.2648181915283203,-1.1858949661254883
1717003863227216400,6.57221630859375,-2.3639822006225586,0.40679931640625,-1.3591091632843018
1717003863236882000,6.5818818359375,-2.130521535873413,0.38958740234375,-1.478219985961914
1717003863246547500,6.59154736328125,-1.5071054697036743,0.0762033462524414,-1.6045804023742676
1717003863256213000,6.601212890625,-1.085787057876587,-0.42853736877441406,-1.649994134902954
1717003863265878500,6.61087841796875,-0.7447304725646973,-1.0035371780395508,-1.6822786331176758
1717003863275544000,6.6205439453125,-0.378833532333374,-1.3067140579223633,-1.7108769416809082
1717003863285209900,6.6302099609375,-0.0022690296173095703,-1.3136320114135742,-1.7707841396331787
1717003863294875100,6.639875244140625,0.23749136924743652,-1.3050804138183594,-1.5972285270690918
1717003863304541000,6.649541015625,0.3358628749847412,-0.9754447937011719,-1.2278740406036377
1717003863314206500,6.65920654296875,0.3095407485961914,-0.5050649642944336,-0.9774966239929199
1717003863323872000,6.6688720703125,0.1943221092224121,-0.01878070831298828,-0.8440403938293457
1717003863333537500,6.67853759765625,0.03685259819030762,0.5434322357177734,-0.6094050407409668
1717003863343203000,6.688203125,-0.06327426433563232,1.1152362823486328,-0.41282224655151367
1717003863352868600,6.69786865234375,-0.04338669776916504,1.5420341491699219,-0.3077249526977539
1717003863362534100,6.7075341796875,0.04328465461730957,1.707043170928955,-0.4702773094177246
1717003863372199700,6.71719970703125,0.33249354362487793,1.487929344177246,-0.8738043308258057
1717003863381865200,6.726865234375,0.7256711721420288,1.050990104675293,-1.3451943397521973
1717003863391530800,6.73653076171875,1.1801973581314087,0.6674623489379883,-1.6818645000457764
1717003863401196300,6.7461962890625,1.5174610614776611,0.541595458984375,-1.9551119804382324
1717003863410861800,6.75586181640625,1.8921399116516113,0.31029510498046875,-1.9268558025360107
1717003863420527400,6.76552734375,2.0754854679107666,0.3543968200683594,-1.7561724185943604
1717003863430193000,6.77519287109375,2.200883626937866,0.4730501174926758,-1.5929114818572998
1717003863439858400,6.7848583984375,2.28908371925354,0.5083398818969727,-1.4654722213745117
1717003863449524200,6.794524169921875,2.359255075454712,0.5676889419555664,-1.3490808010101318
1717003863459189800,6.804189697265625,2.388045310974121,0.6750602722167969,-1.1317236423492432
1717003863468855300,6.813855224609375,2.390402317047119,0.8520965576171875,-0.9146440029144287
1717003863478520800,6.823520751953125,2.4076037406921387,0.9721212387084961,-0.7959516048431396
1717003863488186400,6.833186279296875,2.3880841732025146,1.1142797470092773,-0.6829085350036621
1717003863497852000,6.842851806640625,2.371339797973633,1.261035442352295,-0.7026844024658203
1717003863507517400,6.852517333984375,2.3866207599639893,1.4546494483947754,-0.7364542484283447
1717003863517183000,6.862182861328125,2.4393019676208496,1.7258505821228027,-0.7293000221252441
1717003863526848500,6.8718486328125,2.4799270629882812,2.0654215812683105,-0.5878899097442627
1717003863536514000,6.88151416015625,2.5138583183288574,2.461884021759033,-0.3770182132720947
1717003863546179600,6.8911796875,2.512784242630005,3.023487091064453,-0.02353501319885254
1717003863555845000,6.90084521484375,2.419755458831787,3.640577793121338,0.37438178062438965
1717003863565510700,6.9105107421875,2.316016674041748,4.4011359214782715,0.7401485443115234
1717003863575176200,6.92017626953125,2.227341890335083,5.0058393478393555,1.1245408058166504
1717003863584841700,6.929841796875,2.207826614379883,5.578134059906006,1.4128820896148682
1717003863594507300,6.93950732421875,2.069871664047241,5.866591930389404,1.5258381366729736
1717003863604172800,6.9491728515625,-16.53077507019043,3.227156162261963,3.413261890411377
1717003863613838600,6.958838623046875,-9.60103988647461,2.0429577827453613,1.7730098962783813
1717003863623504100,6.968504150390625,-2.7116634845733643,1.4469356536865234,0.37424325942993164
1717003863633169700,6.978169677734375,1.3723649978637695,0.6084866523742676,0.2064201831817627
1717003863642835200,6.987835205078125,3.1204209327697754,-0.3879861831665039,0.465456485748291
1717003863652500700,6.997500732421875,4.325533866882324,-1.902461051940918,1.6528337001800537
1717003863662166300,7.007166259765625,3.6478540897369385,-3.036975860595703,2.9402620792388916
1717003863671831800,7.016831787109375,1.0134997367858887,-3.728719711303711,3.823442220687866
1717003863681497300,7.026497314453125,0.8938643932342529,-3.312375068664551,3.104707956314087
1717003863691163000,7.036162841796875,2.642637014389038,-2.513596534729004,2.171149253845215
1717003863700828400,7.045828369140625,3.894986629486084,-1.8059539794921875,1.2903958559036255
1717003863710494000,7.055493896484375,3.8355553150177,-1.0392723083496094,0.36559414863586426
1717003863720159500,7.065159423828125,2.599473714828491,-0.0628976821899414,-0.8847801685333252
1717003863729825000,7.074824951171875,2.2940027713775635,0.7252240180969238,-1.8614959716796875
1717003863739490600,7.084490478515625,2.1060361862182617,1.2495074272155762,-1.8532485961914062
1717003863749156400,7.09415625,1.1477046012878418,1.3532915115356445,-1.4559674263000488
1717003863758822000,7.10382177734375,2.007211685180664,0.8632998466491699,-0.7216486930847168
1717003863768487400,7.1134873046875,4.469032287597656,0.4048938751220703,-0.3236985206604004
1717003863778153000,7.123153076171875,4.799400329589844,-0.1911640167236328,0.11830544471740723
1717003863787818500,7.132818603515625,0.8663644790649414,0.6196117401123047,-0.2217576503753662
1717003863797484000,7.142484130859375,-1.7450251579284668,1.573697805404663,-0.639091968536377
1717003863807149600,7.152149658203125,0.17276620864868164,1.683713436126709,-0.43772268295288086
1717003863816815000,7.161815185546875,3.0751028060913086,0.7339878082275391,0.2562439441680908
1717003863826480600,7.171480712890625,3.4785661697387695,0.03330421447753906,1.1686931848526
1717003863836146200,7.181146240234375,0.6473660469055176,0.17200994491577148,1.9893795251846313
1717003863845811700,7.190811767578125,0.3719964027404785,0.03943061828613281,2.371591567993164
1717003863855477200,7.200477294921875,2.0852670669555664,-0.5449481010437012,1.8381388187408447
1717003863865142800,7.210142822265625,1.0460305213928223,-0.41693711280822754,0.9421056509017944
1717003863874808300,7.219808349609375,0.4364433288574219,-0.7398087978363037,-0.122109055519104
1717003863884473900,7.229473876953125,0.9635119438171387,-1.256225347518921,-1.0041853189468384
1717003863894139600,7.2391396484375,-0.3346128463745117,-1.3164145946502686,-1.3131521940231323
1717003863903805200,7.24880517578125,-1.225245475769043,-1.563469648361206,-0.9385074377059937
1717003863913470700,7.258470703125,-0.7457981109619141,-1.2113020420074463,-0.8912326097488403
1717003863923136300,7.26813623046875,0.8942642211914062,-1.327101469039917,-0.33911144733428955
1717003863932801800,7.2778017578125,-0.3891448974609375,-0.5719194412231445,0.027930736541748047
1717003863942467300,7.28746728515625,0.06430625915527344,0.04201376438140869,0.060404300689697266
1717003863952132900,7.2971328125,1.0806961059570312,0.9822124242782593,0.003058791160583496
1717003863961798400,7.30679833984375,0.596379280090332,1.909266710281372,0.023646116256713867
1717003863971464000,7.3164638671875,-0.0807046890258789,2.6846683025360107,0.6295163631439209
1717003863981129500,7.32612939453125,0.589390754699707,3.4267327785491943,1.351625680923462
1717003863990795000,7.335794921875,-1.8606386184692383,4.378346920013428,2.1909868717193604
1717003864000460500,7.34546044921875,-1.5608015060424805,4.497465133666992,1.8307262659072876
1717003864010126000,7.3551259765625,-0.9484081268310547,4.138004302978516,0.6446640491485596
1717003864019791600,7.36479150390625,-0.2746143341064453,3.8419361114501953,-1.3468056917190552
1717003864029457400,7.37445751953125,1.005589485168457,3.171076774597168,-2.408860206604004
1717003864039123000,7.384123046875,-1.0834636688232422,2.5652575492858887,-2.436659336090088
1717003864048788500,7.39378857421875,-2.4584131240844727,0.43720781803131104,-0.8923320770263672
1717003864058454000,7.4034541015625,-3.693195343017578,-0.09924888610839844,0.7657586932182312
1717003864068119600,7.41311962890625,-3.2576847076416016,0.007712125778198242,1.6287000179290771
1717003864077785000,7.42278515625,-2.313107490539551,-0.058342695236206055,2.0961999893188477
1717003864087450600,7.43245068359375,-3.5165834426879883,-0.11890697479248047,2.042423725128174
1717003864097116200,7.4421162109375,-5.618542671203613,-0.16580963134765625,1.538085699081421
1717003864106781700,7.45178173828125,-5.882502555847168,0.6450295448303223,1.0641841888427734
1717003864116447200,7.461447265625,-5.011802673339844,1.2000057697296143,1.5261054039001465
1717003864126112800,7.47111279296875,-5.926492691040039,1.8870232105255127,1.0184043645858765
1717003864135778600,7.480778564453125,-5.867803573608398,1.4767682552337646,0.6913067102432251
1717003864145443800,7.49044384765625,-5.322877883911133,2.2562780380249023,-0.010387420654296875
1717003864155109600,7.500109619140625,-6.030091285705566,2.765092372894287,-0.7665951251983643
1717003864164775200,7.509775146484375,-6.120512008666992,2.3256044387817383,-0.489068865776062
1717003864174440700,7.519440673828125,-4.9818620681762695,2.0536251068115234,-0.020135819911956787
1717003864184106200,7.529106201171875,-5.120771408081055,2.142822504043579,-0.3981870412826538
1717003864193771800,7.538771728515625,-4.7755327224731445,2.040069103240967,-0.47081631422042847
1717003864203437300,7.548437255859375,-4.069730758666992,1.9296066761016846,-0.1526508927345276
1717003864213102800,7.558102783203125,-5.1734113693237305,2.3584606647491455,-0.5214556455612183
1717003864222768400,7.567768310546875,-4.650145530700684,2.6862995624542236,-1.527274250984192
1717003864232434000,7.577433837890625,-3.652237892150879,3.0309712886810303,-2.0681025981903076
1717003864242099700,7.587099609375,-3.958005905151367,3.0206549167633057,-1.9031732082366943
1717003864251765000,7.596764892578125,-3.3389129638671875,2.6792078018188477,-1.886772871017456
1717003864261430800,7.6064306640625,-3.79561710357666,2.0391428470611572,-2.0320796966552734
1717003864271096300,7.616096435546875,-3.8191566467285156,1.8917653560638428,-2.2020511627197266
1717003864280761900,7.625761962890625,-3.286287307739258,1.7994399070739746,-1.8566792011260986
1717003864290427400,7.635427490234375,-3.632587432861328,1.7475144863128662,-1.790589451789856
1717003864300093000,7.645093017578125,-2.61761474609375,1.4565317630767822,-1.8152952194213867
1717003864309758500,7.654758544921875,-1.9480409622192383,1.3468968868255615,-1.0257525444030762
1717003864319424000,7.664424072265625,-1.1727838516235352,1.3810447454452515,-0.3629559278488159
1717003864329089500,7.674089599609375,-1.051426887512207,1.189413070678711,0.28720247745513916
1717003864338755000,7.683755126953125,-1.8262872695922852,1.8196707963943481,0.19653284549713135
1717003864348420600,7.693420654296875,-1.280447006225586,1.7071516513824463,0.4250633716583252
1717003864358086100,7.703086181640625,-2.147951126098633,1.683225154876709,0.9153510332107544
1717003864367752000,7.712751953125,-0.9838657379150391,1.0734163522720337,1.7872180938720703
1717003864377417500,7.72241748046875,-0.19781780242919922,0.5198584794998169,2.667111873626709
1717003864387083000,7.7320830078125,-1.395345687866211,0.8180456161499023,2.906766891479492
1717003864396748500,7.74174853515625,-1.5759220123291016,0.7409828305244446,3.258971691131592
1717003864406414000,7.7514140625,-0.13634586334228516,0.5875961780548096,3.674398422241211
1717003864416079600,7.76107958984375,-0.5672702789306641,0.6657552719116211,3.251919746398926
1717003864425745200,7.7707451171875,0.5012903213500977,0.2979046106338501,2.6677558422088623
1717003864435410700,7.78041064453125,0.06684494018554688,0.7428394556045532,1.975630760192871
1717003864445076200,7.790076171875,-0.7469568252563477,1.1068592071533203,1.2630679607391357
1717003864454741800,7.79974169921875,-0.6174840927124023,1.2127596139907837,0.9647674560546875
1717003864464407300,7.8094072265625,-0.11636638641357422,1.0819207429885864,0.7671191692352295
1717003864474072800,7.81907275390625,0.5879144668579102,0.7656184434890747,0.7076036930084229
1717003864483738400,7.82873828125,0.45629119873046875,0.41247934103012085,0.3922593593597412
1717003864493404000,7.83840380859375,-0.6236944198608398,0.3186163902282715,0.6454935073852539
1717003864503069700,7.848069580078125,-0.37192630767822266,0.36500084400177,0.5036911964416504
1717003864512735200,7.8577353515625,0.9532785415649414,0.4973180294036865,1.0336618423461914
1717003864522400800,7.86740087890625,1.8190908432006836,0.4814877510070801,0.9559850692749023
1717003864532066300,7.87706640625,1.4470176696777344,0.7380859851837158,0.635932445526123
1717003864541731800,7.88673193359375,0.7193717956542969,0.6305539608001709,0.5148191452026367
1717003864551397400,7.8963974609375,0.43827342987060547,0.6357324123382568,0.4016752243041992
1717003864561063000,7.90606298828125,0.4959688186645508,0.5451633930206299,0.2974686622619629
1717003864570728400,7.915728515625,0.9568390846252441,0.4008452892303467,0.37980127334594727
1717003864580394000,7.92539404296875,1.1120424270629883,0.4149434566497803,0.2679409980773926
1717003864590059500,7.9350595703125,1.1482200622558594,0.21990656852722168,0.1395254135131836
1717003864599725000,7.94472509765625,1.5296993255615234,0.16866588592529297,0.1958632469177246
1717003864609390800,7.954390869140625,1.8244333267211914,0.03708624839782715,0.42679595947265625
1717003864619056400,7.964056396484375,2.012427806854248,-0.1185598373413086,0.4957242012023926
1717003864628722000,7.973721923828125,2.2754077911376953,-0.048175811767578125,0.5830135345458984
1717003864638387500,7.983387451171875,2.485633373260498,-0.20038509368896484,0.9173769950866699
1717003864648053000,7.993052978515625,2.66514253616333,-0.2638826370239258,0.44310426712036133
1717003864657718500,8.002718505859375,2.9386422634124756,-0.40053749084472656,0.5869088172912598
1717003864667384000,8.012384033203125,3.3702313899993896,-0.41661548614501953,1.148420810699463
1717003864677049600,8.022049560546876,3.553194761276245,0.024628162384033203,1.9164962768554688
1717003864686715100,8.031715087890625,3.832484245300293,0.5460987091064453,2.5060367584228516
1717003864696380700,8.041380615234376,3.7878577709198,0.7833743095397949,2.7177176475524902
1717003864706046200,8.051046142578125,3.5964138507843018,0.7483816146850586,2.3930959701538086
1717003864715711700,8.060711669921876,3.0744566917419434,0.6077513694763184,2.0783958435058594
1717003864725377300,8.070377197265625,1.921403408050537,0.491363525390625,1.849076509475708
1717003864735043000,8.08004296875,1.1160163879394531,0.0657949447631836,1.5303773880004883
1717003864744708600,8.08970849609375,1.0839192867279053,-0.06260204315185547,0.8247017860412598
1717003864754374100,8.0993740234375,1.825432538986206,-0.3593873977661133,0.07041692733764648
1717003864764039700,8.109039794921875,2.6281771659851074,-1.0467910766601562,-0.7626118659973145
1717003864773705200,8.118705322265624,2.8890609741210938,-1.5951576232910156,-1.00569486618042
1717003864783370800,8.128370849609375,2.4975993633270264,-1.405501365661621,-0.5628485679626465
1717003864793036300,8.138036376953124,0.92822265625,-0.9444179534912109,-0.9458141326904297
1717003864802701800,8.147701904296875,-0.8719265460968018,-0.20293617248535156,-1.0446085929870605
1717003864812367400,8.157367431640624,-2.5001142024993896,1.318345069885254,-0.8237509727478027
1717003864822033000,8.167032958984375,-2.8082275390625,2.3807930946350098,-0.35255932807922363
1717003864831698400,8.176698486328124,-1.5823783874511719,3.010921001434326,0.45121097564697266
1717003864841364200,8.1863642578125,-0.5121899247169495,2.8337278366088867,0.9236900806427002
1717003864851029800,8.19602978515625,-0.1820647120475769,2.6185951232910156,1.1690075397491455
1717003864860695300,8.2056953125,-0.3344078063964844,2.3790063858032227,1.3934519290924072
1717003864870360800,8.21536083984375,-0.9265834093093872,2.6238789558410645,1.4809187650680542
1717003864880026400,8.2250263671875,-1.6964517831802368,2.07692813873291,1.6897072792053223
1717003864889692000,8.23469189453125,-2.746483325958252,1.8026137351989746,1.8278985023498535
1717003864899357400,8.244357421875,-3.7135417461395264,1.6587200164794922,1.907492995262146
1717003864909023000,8.25402294921875,-4.14091157913208,1.297713279724121,1.8970385789871216
1717003864918688500,8.2636884765625,-3.790785312652588,1.247206687927246,1.5817265510559082
1717003864928354000,8.27335400390625,-3.015097141265869,1.2250862121582031,1.1004340648651123
1717003864938019600,8.28301953125,-2.1761388778686523,1.2006149291992188,0.5412931442260742
1717003864947685000,8.29268505859375,-1.5879697799682617,1.318756103515625,0.27336716651916504
1717003864957350700,8.3023505859375,-1.1773868799209595,0.48399925231933594,0.09641695022583008
1717003864967016400,8.312016357421875,-1.0414001941680908,0.23531341552734375,0.0657663345336914
1717003864976682000,8.321681884765624,-0.964876115322113,0.0910482406616211,-0.16132092475891113
1717003864986347500,8.331347412109375,-0.8513813018798828,-0.6651716232299805,-0.43964099884033203
1717003864996013000,8.341012939453124,-0.7871795892715454,-0.8580207824707031,-0.48837709426879883
1717003865005678600,8.3506787109375,-0.7452577352523804,-0.8795089721679688,-0.7094171047210693
1717003865015344000,8.36034423828125,-0.7433327436447144,-0.8962831497192383,-0.9845743179321289
1717003865025009700,8.370009765625,-0.8210717439651489,-0.8853883743286133,-1.2535505294799805
1717003865034675200,8.37967529296875,-0.8318915367126465,-1.248758316040039,-1.5380306243896484
1717003865044340700,8.3893408203125,-0.8072572946548462,-1.5722370147705078,-1.762251615524292
1717003865054006300,8.39900634765625,-0.5584125518798828,-1.8707380294799805,-1.9387388229370117
1717003865063671800,8.408671875,-0.09502971172332764,-2.0015554428100586,-1.9923746585845947
1717003865073337600,8.418337646484375,0.1555025577545166,-1.8529901504516602,-2.030790328979492
1717003865083003100,8.428003173828126,0.2750532627105713,-1.2044801712036133,-1.9402823448181152
1717003865092668700,8.437668701171875,0.20978498458862305,-0.26720714569091797,-1.5408587455749512
1717003865102334200,8.447334228515626,0.049217939376831055,0.5832271575927734,-0.8901252746582031
1717003865111999700,8.456999755859375,-0.19868016242980957,1.2787647247314453,-0.3264946937561035
1717003865121665300,8.466665283203126,-0.3596903085708618,1.686727523803711,0.046692609786987305
1717003865131330800,8.476330810546875,-0.36876463890075684,1.9393010139465332,0.279935359954834
1717003865140996400,8.485996337890626,-0.25286900997161865,1.8982901573181152,0.3659999370574951
1717003865150662000,8.495661865234375,-0.10722875595092773,1.5164952278137207,0.38049793243408203
1717003865160327400,8.505327392578126,0.11794912815093994,1.0312061309814453,0.4096231460571289
1717003865169993000,8.514992919921875,0.37878239154815674,0.6121330261230469,0.39164137840270996
1717003865179658800,8.52465869140625,0.5980938673019409,0.2919282913208008,0.24077367782592773
1717003865189324300,8.53432421875,0.8264632225036621,-0.03059864044189453,0.01093292236328125
1717003865198989800,8.54398974609375,0.9848408699035645,-0.3653421401977539,-0.24387145042419434
1717003865208655400,8.5536552734375,1.0776333808898926,-0.5951099395751953,-0.47990989685058594
1717003865218321000,8.56332080078125,1.1221280097961426,-0.6673898696899414,-0.6607227325439453
1717003865227986400,8.572986328125,1.1284462213516235,-0.46300697326660156,-0.8215816020965576
1717003865237652000,8.58265185546875,1.1658241748809814,-0.18094921112060547,-0.952017068862915
1717003865247317500,8.5923173828125,1.2751504182815552,0.14495086669921875,-1.070974588394165
1717003865256983000,8.601983154296875,1.4339159727096558,0.37586402893066406,-1.1238677501678467
1717003865266648600,8.611648681640625,1.5313746929168701,0.4117279052734375,-1.1978015899658203
1717003865276314000,8.621314208984375,1.647433876991272,0.37479305267333984,-1.353430986404419
1717003865285980000,8.63097998046875,1.8207356929779053,0.2961750030517578,-1.4694154262542725
1717003865295645400,8.6406455078125,1.9855352640151978,0.1976785659790039,-1.537553310394287
1717003865305311000,8.65031103515625,2.048745632171631,0.22516250610351562,-1.6301889419555664
1717003865314976500,8.6599765625,2.1761362552642822,0.30202293395996094,-1.6306872367858887
1717003865324642000,8.66964208984375,2.2919352054595947,0.3975791931152344,-1.6293385028839111
1717003865334307600,8.6793076171875,2.427163600921631,0.4973630905151367,-1.7311997413635254
1717003865343973000,8.68897314453125,2.6236400604248047,0.574793815612793,-1.7658519744873047
1717003865353638700,8.698638671875,2.7937209606170654,0.7036142349243164,-1.8065574169158936
1717003865363304200,8.70830419921875,2.9785523414611816,0.9263019561767578,-1.8114590644836426
1717003865372969700,8.7179697265625,2.9761111736297607,1.2925338745117188,-1.7270824909210205
1717003865382635300,8.72763525390625,2.8439836502075195,1.7110042572021484,-1.6959865093231201
1717003865392301000,8.737301025390625,2.633178949356079,2.1983203887939453,-1.6152009963989258
1717003865401966600,8.746966552734374,2.437579870223999,2.8210372924804688,-1.4508755207061768
1717003865411632000,8.756632080078125,2.2528293132781982,3.533169746398926,-1.2023401260375977
1717003865421297700,8.766297607421874,2.1346516609191895,4.219947814941406,-0.8768548965454102
1717003865430963200,8.775963134765625,2.0414931774139404,4.857949733734131,-0.4438159465789795
1717003865440628700,8.785628662109374,1.7818418741226196,5.261483192443848,0.11781716346740723
1717003865450294300,8.795294189453125,-13.71426773071289,3.785634994506836,3.2823376655578613
1717003865459959800,8.804959716796875,-17.096412658691406,0.3060951232910156,6.42201042175293
1717003865469625300,8.814625244140625,-9.793960571289062,1.2759366035461426,3.476119041442871
1717003865479291000,8.824290771484375,-4.966465950012207,0.9280891418457031,1.680444359779358
1717003865488956400,8.833956298828125,-1.2771697044372559,0.3046865463256836,1.0000109672546387
1717003865498622200,8.843622314453125,0.7774684429168701,0.5339250564575195,0.41254711151123047
1717003865508287700,8.853287841796876,1.9415743350982666,1.433495044708252,-0.2984175682067871
1717003865517953300,8.862953369140625,4.064467906951904,1.8982295989990234,0.7879464626312256
1717003865527618800,8.872618896484376,4.1406121253967285,1.9766278266906738,1.2043225765228271
1717003865537284400,8.882284423828125,2.1101315021514893,1.9942541122436523,1.0023586750030518
1717003865546950000,8.891949951171876,-2.115002155303955,2.70017147064209,0.34411025047302246
1717003865556615400,8.901615478515625,-3.277346134185791,2.452134132385254,-0.08006858825683594
1717003865566281000,8.911281005859376,-2.577451705932617,1.2469229698181152,-0.19372105598449707
1717003865575946500,8.920946533203125,2.4425911903381348,-0.6340136528015137,-0.3145639896392822
1717003865585612000,8.930612060546874,8.322891235351562,-2.1085734367370605,0.018131256103515625
1717003865595277800,8.94027783203125,10.64393424987793,-1.7065434455871582,-0.03637266159057617
1717003865604943400,8.949943359375,5.772785186767578,0.03227996826171875,-0.053809165954589844
1717003865614609000,8.95960888671875,-0.14477062225341797,0.914675235748291,0.16064715385437012
1717003865624274400,8.9692744140625,1.4995160102844238,-0.21354913711547852,0.9002790451049805
1717003865633940000,8.97893994140625,4.159754753112793,-1.5801873207092285,1.7665090560913086
1717003865643605500,8.98860546875,5.680931568145752,-2.509502410888672,2.865450620651245
1717003865653271000,8.99827099609375,4.340062141418457,-3.0043630599975586,3.8435816764831543
1717003865662936600,9.0079365234375,2.1217432022094727,-2.8829498291015625,4.050262451171875
1717003865672602000,9.01760205078125,0.8249630928039551,-2.2417869567871094,4.242536544799805
1717003865682267600,9.027267578125,0.4407534599304199,-1.1588215827941895,3.623403787612915
1717003865691933400,9.036933349609376,3.2289671897888184,-0.4295821189880371,1.993788719177246
1717003865701599000,9.046598876953125,5.28906774520874,-0.03924918174743652,1.058784008026123
1717003865711264500,9.056264404296876,3.719729423522949,0.4971811771392822,0.6165618896484375
1717003865720930000,9.065929931640625,0.2834930419921875,1.3700432777404785,-0.07569289207458496
1717003865730595600,9.075595703125,-1.9001893997192383,2.3756673336029053,-0.36733198165893555
1717003865740261000,9.08526123046875,-0.5641765594482422,2.625032901763916,-0.18242502212524414
1717003865749926700,9.0949267578125,1.2049269676208496,2.4584600925445557,0.06268143653869629
1717003865759592200,9.10459228515625,2.0085878372192383,2.8539953231811523,0.16853117942810059
1717003865769257700,9.1142578125,-0.8749628067016602,4.307039737701416,-0.1982896327972412
1717003865778923300,9.12392333984375,-2.9262752532958984,4.534356117248535,0.20613956451416016
1717003865788589000,9.133589111328124,-3.365269660949707,3.829113483428955,1.755715250968933
1717003865798254600,9.143254638671875,-2.9040746688842773,2.573007345199585,3.164623975753784
1717003865807920000,9.152920166015624,-1.420431137084961,1.2410615682601929,3.888841152191162
1717003865817585700,9.162585693359375,-1.504720687866211,0.6321406960487366,3.4126267433166504
1717003865827251200,9.172251220703124,-2.329988479614258,0.32383623719215393,1.6093714237213135
1717003865836916700,9.181916748046875,-1.428217887878418,-0.582744300365448,0.02225780487060547
1717003865846582300,9.191582275390624,-2.0837478637695312,-1.3897340297698975,-0.8227460384368896
1717003865856247800,9.201247802734375,-2.134275436401367,-0.6550346612930298,-2.1200480461120605
1717003865865913600,9.21091357421875,-1.602212905883789,0.6615540981292725,-2.2744858264923096
1717003865875579100,9.2205791015625,-0.31425952911376953,2.107516288757324,-1.6108286380767822
1717003865885244700,9.23024462890625,-0.046337127685546875,3.0044782161712646,-0.7723560333251953
1717003865894910200,9.23991015625,0.5146608352661133,2.7269346714019775,-0.0986553430557251
1717003865904575700,9.24957568359375,-0.5651865005493164,0.963353157043457,0.3999396562576294
1717003865914241300,9.2592412109375,-2.8672780990600586,-0.5069012641906738,0.24189269542694092
1717003865923906800,9.26890673828125,-3.698561668395996,-0.7643377780914307,-0.8004196882247925
1717003865933572400,9.278572265625,-3.180034637451172,0.49851059913635254,-2.00881290435791
1717003865943238000,9.28823779296875,-4.475564002990723,2.296764373779297,-2.0366079807281494
1717003865952903400,9.2979033203125,-6.695426940917969,1.9960589408874512,-3.496615171432495
1717003865962569200,9.3075693359375,-5.821990966796875,1.9209089279174805,-2.2238340377807617
1717003865972234800,9.31723486328125,-3.1744518280029297,1.4577643871307373,-2.042635202407837
1717003865981900300,9.326900390625,-3.4368553161621094,1.198890209197998,-1.3658668994903564
1717003865991565800,9.33656591796875,-3.7812747955322266,0.5187077522277832,-2.0063846111297607
1717003866001231400,9.3462314453125,-4.151103973388672,1.2364864349365234,-0.6815354824066162
1717003866010897000,9.35589697265625,-5.303630828857422,2.5190439224243164,0.6236693859100342
1717003866020562400,9.3655625,-5.327542304992676,3.3927483558654785,-0.9631836414337158
1717003866030228000,9.37522802734375,-5.908159255981445,3.1440224647521973,-0.5256643295288086
1717003866039893800,9.384893798828125,-5.451656341552734,3.0407400131225586,-0.4092247486114502
1717003866049559300,9.394559326171875,-5.869131088256836,2.639167308807373,-1.1112239360809326
1717003866059224800,9.404224853515625,-6.934967041015625,2.430723190307617,-2.5934031009674072
1717003866068890400,9.413890380859375,-6.304040908813477,2.5980772972106934,-3.5631775856018066
1717003866078556000,9.423555908203125,-7.341954231262207,2.262814998626709,-3.528902769088745
1717003866088221400,9.433221435546875,-6.308048248291016,2.234179973602295,-3.1115472316741943
1717003866097887000,9.442886962890626,-4.909228324890137,2.167224407196045,-1.8217711448669434
1717003866107552500,9.452552490234375,-5.06577205657959,1.583165168762207,-0.02010488510131836
1717003866117218300,9.46221826171875,-5.152270317077637,1.8615269660949707,0.10067486763000488
1717003866126883800,9.4718837890625,-3.6885194778442383,1.9450440406799316,-0.4691963195800781
1717003866136549400,9.48154931640625,-3.013528823852539,1.8230392932891846,-0.7750461101531982
1717003866146215000,9.49121484375,-4.039231300354004,2.1179521083831787,-1.7582273483276367
1717003866155880400,9.50088037109375,-3.4563398361206055,2.274202585220337,-1.826204538345337
1717003866165546000,9.5105458984375,-1.2583236694335938,2.2218594551086426,-0.9539761543273926
1717003866175211500,9.52021142578125,-0.23186874389648438,2.020270347595215,-0.1325550079345703
1717003866184877000,9.529876953125,-0.05859661102294922,1.8409981727600098,-0.11876726150512695
1717003866194542600,9.53954248046875,0.49585437774658203,1.826090931892395,-0.6629018783569336
1717003866204208400,9.54920849609375,1.5039243698120117,1.990718126296997,-1.0985419750213623
1717003866213874000,9.5588740234375,1.1340360641479492,2.2900149822235107,-1.219724178314209
1717003866223539500,9.56853955078125,0.6407260894775391,2.5196568965911865,-0.829796314239502
1717003866233205000,9.578205078125,0.6618080139160156,2.4725637435913086,-0.18337416648864746
1717003866242870500,9.58787060546875,0.36271190643310547,2.389645576477051,0.4165968894958496
1717003866252536000,9.5975361328125,0.5031051635742188,2.1625874042510986,0.9046969413757324
1717003866262201600,9.60720166015625,0.4368124008178711,1.537924885749817,1.2168116569519043
1717003866271867100,9.6168671875,0.6053276062011719,0.8823888301849365,1.3756471872329712
1717003866281533000,9.626532958984376,0.4123086929321289,0.585031270980835,1.456754207611084
1717003866291198500,9.636198486328125,0.22476482391357422,0.6028684973716736,1.3613810539245605
1717003866300864000,9.645864013671876,0.18064594268798828,0.7443607449531555,1.105407476425171
1717003866310529500,9.655529541015625,0.3899402618408203,0.99009108543396,0.5879950523376465
1717003866320195000,9.665195068359376,0.9606466293334961,1.1262922286987305,0.2851524353027344
1717003866329860600,9.674860595703125,1.368260383605957,1.1642537117004395,0.1722273826599121
1717003866339526100,9.684526123046876,1.7570571899414062,1.0851057767868042,0.13298511505126953
1717003866349191700,9.694191650390625,2.039358615875244,0.974778413772583,0.17048096656799316
1717003866358857500,9.703857421875,1.8417434692382812,0.8468040227890015,0.11897873878479004
1717003866368523000,9.71352294921875,1.1736078262329102,0.7302725315093994,0.023363828659057617
1717003866378188500,9.7231884765625,0.9402217864990234,0.46149134635925293,0.1765758991241455
1717003866387854000,9.73285400390625,0.9420175552368164,0.38100433349609375,0.4471244812011719
1717003866397519600,9.74251953125,1.0675649642944336,0.22746753692626953,0.9562873840332031
1717003866407185200,9.75218505859375,0.9168620109558105,0.05653095245361328,1.456387996673584
1717003866416850700,9.7618505859375,0.6531267166137695,-0.10043215751647949,1.8944721221923828
1717003866426516200,9.77151611328125,0.4332094192504883,-0.22898292541503906,2.1481430530548096
1717003866436181800,9.781181640625,0.43244171142578125,-0.30510783195495605,2.2304961681365967
1717003866445847300,9.790847412109375,0.7228550910949707,-0.16328811645507812,2.307131290435791
1717003866455513000,9.80051318359375,1.0272178649902344,-0.04516029357910156,2.2133448123931885
1717003866465178600,9.8101787109375,1.135523796081543,0.2008671760559082,2.066582441329956
1717003866474844200,9.81984423828125,1.4584579467773438,0.23216485977172852,2.22483491897583
1717003866484509700,9.829509765625,1.8781208992004395,0.28397703170776367,2.207681179046631
1717003866494175200,9.83917529296875,2.230738639831543,0.3563976287841797,2.0558691024780273
1717003866503840800,9.8488408203125,2.2390975952148438,0.2663540840148926,1.6431605815887451
1717003866513506300,9.85850634765625,2.4130523204803467,0.2683291435241699,1.2071475982666016
1717003866523171800,9.868171875,3.361400842666626,-0.005012989044189453,1.0439023971557617
1717003866532837400,9.87783740234375,3.542943239212036,-0.31441688537597656,0.9715628623962402
1717003866542503200,9.887503173828126,3.3848986625671387,-0.3952498435974121,1.1306800842285156
1717003866552168700,9.897168701171875,3.0729260444641113,-0.6148900985717773,1.1861610412597656
1717003866561834200,9.906834228515624,2.5188474655151367,-0.6599159240722656,1.2542400360107422
1717003866571499800,9.916499755859375,1.6921517848968506,-0.9185733795166016,1.2010135650634766
1717003866581165300,9.926165283203124,1.1993257999420166,-1.2482104301452637,0.7935371398925781
1717003866590830800,9.935830810546875,0.871417760848999,-1.2964458465576172,0.5542769432067871
1717003866600496400,9.945496337890624,1.0165514945983887,-1.1036248207092285,0.6497011184692383
1717003866610162000,9.955161865234375,1.0308682918548584,-1.3434619903564453,0.0037937164306640625
1717003866619827700,9.96482763671875,0.8036184310913086,-2.2628536224365234,-0.4409046173095703
1717003866629493200,9.9744931640625,1.0070174932479858,-2.3946619033813477,-0.38994932174682617
1717003866639158800,9.98415869140625,0.787855863571167,-2.134819984436035,0.3410487174987793
1717003866648824300,9.99382421875,0.5271750688552856,-0.7006626129150391,0.8102283477783203
1717003866658489900,10.00348974609375,-0.12564921379089355,0.20877552032470703,1.0291457176208496
1717003866668155400,10.0131552734375,-0.8478463888168335,1.5781893730163574,1.373467206954956
1717003866677821000,10.022821044921875,-1.0459184646606445,2.195225715637207,1.5868713855743408
1717003866687486500,10.032486572265626,-1.151767611503601,3.2088022232055664,1.2755498886108398
1717003866697152000,10.042152099609375,-1.0682719945907593,3.3594913482666016,0.9121885299682617
1717003866706817500,10.051817626953126,-1.1717572212219238,3.685089111328125,0.843437910079956
1717003866716483300,10.0614833984375,-1.2535804510116577,3.543376922607422,0.8142178058624268
1717003866726148900,10.07114892578125,-1.317164421081543,3.5643115043640137,0.8123679161071777
1717003866735814400,10.080814453125,-1.2769967317581177,3.468654155731201,0.7768988609313965
1717003866745480000,10.09047998046875,-1.3466060161590576,3.230558395385742,0.7037491798400879
1717003866755145500,10.1001455078125,-2.2970707416534424,2.9184179306030273,0.4680948257446289
1717003866764811000,10.10981103515625,-3.57028865814209,2.9714841842651367,-0.4178032875061035
1717003866774476500,10.1194765625,-4.198387622833252,2.751382350921631,-1.1665990352630615
1717003866784142000,10.12914208984375,-3.720301389694214,1.8377265930175781,-1.4073636531829834
1717003866793808000,10.138807861328125,-2.7026171684265137,1.139760971069336,-1.132265567779541
1717003866803473400,10.148473388671874,-1.7284104824066162,0.5901565551757812,-0.785001277923584
1717003866813139000,10.158138916015625,-0.9088467359542847,-0.2224588394165039,-0.7749655246734619
1717003866822804500,10.167804443359374,-0.49618464708328247,-0.963902473449707,-0.9975917339324951
1717003866832470000,10.177469970703125,-0.3965212106704712,-1.1774406433105469,-1.3159446716308594
1717003866842135600,10.187135498046874,-0.450106143951416,-0.5664091110229492,-1.6529126167297363
1717003866851801000,10.196801025390625,-0.3528784513473511,-1.1295976638793945,-2.2099215984344482
1717003866861466600,10.206466552734375,-0.2922031879425049,-1.0635604858398438,-2.6087005138397217
1717003866871132400,10.21613232421875,-0.3110811710357666,-0.8744583129882812,-2.968892812728882
1717003866880798000,10.2257978515625,-0.30725395679473877,-0.44924163818359375,-3.0857412815093994
1717003866890463500,10.23546337890625,-0.2625843286514282,-0.1433124542236328,-2.9267380237579346
1717003866900129000,10.24512890625,-0.21387827396392822,0.11928272247314453,-2.607259750366211
1717003866909794600,10.254794677734376,-0.17117059230804443,0.22710800170898438,-1.9249413013458252
1717003866919460000,10.264460205078125,-0.03286027908325195,0.3541126251220703,-1.070814609527588
1717003866929125600,10.274125732421876,0.15382111072540283,0.39655017852783203,-0.3876988887786865
1717003866938791200,10.283791259765625,0.32954442501068115,0.4341707229614258,0.008973121643066406
1717003866948456700,10.293456787109376,0.5274163484573364,0.4335460662841797,0.2329413890838623
1717003866958122500,10.30312255859375,0.6828137636184692,0.4610881805419922,0.30649280548095703
1717003866967788000,10.3127880859375,0.773157000541687,0.35584545135498047,0.31815648078918457
1717003866977453600,10.32245361328125,0.8630921840667725,0.21716785430908203,0.27486491203308105
1717003866987119000,10.332119140625,0.9292612075805664,0.0031404495239257812,0.16776323318481445
1717003866996784600,10.34178466796875,0.9516106843948364,-0.12247657775878906,0.1051328182220459
1717003867006450200,10.3514501953125,0.9539297819137573,-0.24418258666992188,0.09341740608215332
1717003867016115700,10.36111572265625,0.933881402015686,-0.22116470336914062,0.14159178733825684
1717003867025781200,10.37078125,0.954069972038269,-0.14594650268554688,0.3120734691619873
1717003867035447000,10.380447021484375,0.9763907194137573,-0.02842235565185547,0.46893858909606934
1717003867045112600,10.390112548828125,0.9572978019714355,0.08833503723144531,0.6592557430267334
1717003867054778000,10.399778076171875,0.9507429599761963,0.2559785842895508,0.7573599815368652
1717003867064443600,10.409443603515625,0.9133435487747192,0.4501075744628906,0.5960863828659058
1717003867074109200,10.419109130859376,0.8897980451583862,0.5186014175415039,0.3567783832550049
1717003867083774700,10.428774658203125,0.887588381767273,0.3672981262207031,0.0911099910736084
1717003867093440300,10.438440185546876,0.9296706914901733,0.17048263549804688,-0.13941550254821777
1717003867103105800,10.448105712890625,0.9443961381912231,0.018939971923828125,-0.3440589904785156
1717003867112771600,10.457771484375,0.9919248819351196,-0.015638351440429688,-0.5375757217407227
1717003867122437000,10.46743701171875,1.0571281909942627,-0.06461334228515625,-0.6855454444885254
1717003867132102700,10.4771025390625,1.221522331237793,-0.1871967315673828,-0.7669053077697754
1717003867141768200,10.486768310546875,1.4338915348052979,-0.33288097381591797,-0.8270478248596191
1717003867151433700,10.496433837890624,1.5771156549453735,-0.5043172836303711,-0.9257142543792725
1717003867161099300,10.506099365234375,1.6285032033920288,-0.5110330581665039,-1.1137337684631348
1717003867170764800,10.515764892578124,1.5312248468399048,-0.3613710403442383,-1.1683201789855957
1717003867180430600,10.5254306640625,1.3215174674987793,0.04183673858642578,-1.106461524963379
1717003867190096000,10.535095947265624,1.058814287185669,0.3760089874267578,-0.970954179763794
1717003867199761700,10.54476171875,0.7766985893249512,0.6898670196533203,-0.8363339900970459
1717003867209427200,10.55442724609375,0.5482141971588135,0.8742027282714844,-0.7169125080108643
1717003867219092700,10.5640927734375,0.388171911239624,0.8891839981079102,-0.6959724426269531
1717003867228758300,10.57375830078125,0.3099583387374878,0.7783050537109375,-0.7127499580383301
1717003867238423800,10.583423828125,0.3188818693161011,0.5895977020263672,-0.7521407604217529
1717003867248089300,10.59308935546875,0.37645423412323,0.32568836212158203,-0.7642185688018799
1717003867257755000,10.6027548828125,0.45791828632354736,0.10595512390136719,-0.8133695125579834
1717003867267420700,10.612420654296875,0.5641602277755737,-0.1319751739501953,-0.8737292289733887
1717003867277086200,10.622086181640626,0.634103536605835,-0.3234272003173828,-0.8418688774108887
1717003867286751700,10.631751708984375,0.6790293455123901,-0.3467283248901367,-0.8525032997131348
1717003867296417300,10.641417236328126,0.6697883605957031,-0.1954050064086914,-0.800053596496582
1717003867306082800,10.651082763671875,0.6113904714584351,0.3300971984863281,-0.9095749855041504
1717003867315748400,10.660748291015626,0.545709490776062,0.7534866333007812,-0.831474781036377
1717003867325414000,10.670413818359375,0.45979058742523193,1.2134857177734375,-0.7810561656951904
1717003867335079400,10.680079345703126,0.35817044973373413,1.6430554389953613,-0.7364883422851562
1717003867344745200,10.6897451171875,-0.35135218501091003,1.9316000938415527,-0.37350893020629883
1717003867354410800,10.69941064453125,-4.4937849044799805,1.0834417343139648,0.9213342666625977
1717003867364076300,10.709076171875,-4.386491298675537,1.1110448837280273,0.685722827911377
1717003867373741800,10.718741943359374,-3.4492552280426025,1.6645431518554688,0.34387683868408203
1717003867383407400,10.728407470703125,-2.3975727558135986,2.224785327911377,0.1631178855895996
1717003867393073000,10.738072998046874,-1.4251353740692139,2.5817084312438965,0.06907033920288086
1717003867402738400,10.747738525390625,-0.9157381057739258,2.716766357421875,0.2136225700378418
1717003867412404000,10.757404052734374,-0.34284961223602295,2.6202545166015625,1.1203465461730957
1717003867422069800,10.76706982421875,-0.4778860807418823,2.007004737854004,1.7163108587265015
1717003867431735300,10.7767353515625,-1.8612957000732422,1.659827709197998,2.5693893432617188
1717003867441400800,10.78640087890625,-4.395610809326172,0.6483097076416016,4.214132308959961
1717003867451066400,10.79606640625,-5.521425724029541,0.36219310760498047,4.592391014099121
1717003867460732000,10.80573193359375,-5.055338382720947,1.0674538612365723,3.4790537357330322
1717003867470397400,10.8153974609375,-4.237637519836426,2.1737308502197266,1.9425833225250244
1717003867480063000,10.82506298828125,-1.2686576843261719,2.8877177238464355,-0.37778425216674805
1717003867489728800,10.834728759765625,1.4403364658355713,3.085930824279785,-1.3650999069213867
1717003867499394300,10.844394287109376,3.185983657836914,3.366852283477783,-1.6300938129425049
1717003867509059800,10.854059814453125,3.5580549240112305,3.4534220695495605,-2.225342035293579
1717003867518725400,10.863725341796876,5.0375566482543945,2.1366329193115234,-3.154167652130127
1717003867528391000,10.873390869140625,7.796230316162109,0.0897531509399414,-2.7718217372894287
1717003867538056400,10.883056396484376,11.312433242797852,-0.8734488487243652,-2.265150547027588
1717003867547722000,10.892721923828125,14.269225120544434,-1.3749785423278809,-1.1280572414398193
1717003867557387500,10.902387451171874,12.892217636108398,-0.5146870613098145,-0.6961078643798828
1717003867567053000,10.912052978515625,1.676234245300293,2.1485085487365723,-1.5415935516357422
1717003867576718800,10.92171875,-4.490515232086182,1.6337089538574219,-0.8855428695678711
1717003867586384400,10.93138427734375,-0.923337459564209,-0.6234664916992188,0.5778236389160156
1717003867596050000,10.9410498046875,1.5849418640136719,-2.8977293968200684,2.816779375076294
1717003867605715500,10.950715576171875,-1.2021126747131348,-3.6101202964782715,4.43499755859375
1717003867615381000,10.960381103515624,-1.673509120941162,-3.3834118843078613,4.862864017486572
1717003867625046500,10.970046630859375,1.366898536682129,-3.2158594131469727,5.124580383300781
1717003867634712000,10.979712158203125,3.957298994064331,-2.160844326019287,5.1005144119262695
1717003867644377900,10.9893779296875,4.082640647888184,-1.3912835121154785,4.76836633682251
1717003867654043400,10.99904345703125,2.6589841842651367,-0.6735129356384277,3.545240640640259
1717003867663709000,11.008708984375,2.1029787063598633,-0.08792448043823242,2.014514207839966
1717003867673374500,11.01837451171875,1.6010103225708008,0.6874840259552002,0.9677915573120117
1717003867683040000,11.0280400390625,1.9185762405395508,1.7200703620910645,0.05946707725524902
1717003867692705500,11.03770556640625,4.21591329574585,2.1073970794677734,-0.46118688583374023
1717003867702371000,11.04737109375,3.391500473022461,2.9569613933563232,-1.3313922882080078
1717003867712036900,11.057036865234375,0.4172954559326172,3.680417537689209,-2.2827260494232178
1717003867721702400,11.066702392578126,-0.4309844970703125,3.2575454711914062,-2.5231974124908447
1717003867731368000,11.076367919921875,-0.49120330810546875,2.3388350009918213,-1.9161043167114258
1717003867741033500,11.086033447265624,0.7163705825805664,0.9564788937568665,-0.4318058490753174
1717003867750699000,11.095698974609375,1.1466751098632812,-0.05190819501876831,2.109315872192383
1717003867760364500,11.105364501953124,-1.6924495697021484,0.6840940117835999,4.306466102600098
1717003867770030000,11.115030029296875,-0.9716167449951172,2.415879726409912,5.280730247497559
1717003867779695600,11.124695556640624,0.048867225646972656,4.721236228942871,6.319415092468262
1717003867789361400,11.134361328125,-2.658426284790039,6.197906494140625,6.048142433166504
1717003867799027000,11.14402685546875,-2.7323808670043945,6.698681354522705,2.7158632278442383
1717003867808692500,11.1536923828125,-1.3481683731079102,4.2604217529296875,-1.8676655292510986
1717003867818358000,11.16335791015625,-1.6276216506958008,0.25122690200805664,-4.121211051940918
1717003867828023600,11.1730234375,-2.3947925567626953,-2.4797780513763428,-3.471101760864258
1717003867837689000,11.182689208984375,-3.091594696044922,-3.527724266052246,-1.3524823188781738
1717003867847354600,11.192354736328125,-4.145595550537109,-2.7686102390289307,-0.023979902267456055
1717003867857020400,11.2020205078125,-3.1335411071777344,-0.4243490695953369,0.4998910427093506
1717003867866686000,11.21168603515625,-1.617706298828125,2.3391470909118652,0.21664798259735107
1717003867876351500,11.2213515625,-1.7888126373291016,2.9832866191864014,-0.7807977199554443
1717003867886017000,11.23101708984375,-4.130772590637207,1.6364662647247314,-1.9699244499206543
1717003867895682600,11.2406826171875,-7.153253555297852,0.9595215320587158,-2.9186201095581055
1717003867905348000,11.25034814453125,-6.756342887878418,1.6360406875610352,-2.5605459213256836
1717003867915013600,11.260013671875,-3.4914731979370117,2.74862003326416,-1.7954987287521362
1717003867924679400,11.269679443359376,-4.703502655029297,3.532987117767334,-1.9600777626037598
1717003867934345000,11.279344970703125,-4.244673728942871,3.692473888397217,-1.7425364255905151
1717003867944010500,11.289010498046874,-4.746321678161621,3.922964572906494,-1.839769721031189
1717003867953676000,11.298676025390625,-5.392491340637207,4.087813377380371,-2.1289961338043213
1717003867963341600,11.308341552734374,-5.2380571365356445,4.048264026641846,-1.4451079368591309
1717003867973007000,11.318007080078125,-5.856937408447266,3.8787269592285156,-0.6139696836471558
1717003867982672600,11.327672607421874,-6.550047874450684,3.8084988594055176,-0.8405479192733765
1717003867992338400,11.33733837890625,-6.924229621887207,3.733731746673584,-1.3710346221923828
1717003868002004000,11.34700390625,-7.826054573059082,4.0727386474609375,-2.234766960144043
1717003868011669500,11.35666943359375,-8.355721473693848,4.143650531768799,-2.6935348510742188
1717003868021335000,11.3663349609375,-7.529363632202148,3.6364712715148926,-1.9595953226089478
1717003868031000600,11.37600048828125,-7.472461700439453,3.0236997604370117,-2.0074729919433594
1717003868040666000,11.385666015625,-6.4969940185546875,2.58121395111084,-1.8724238872528076
1717003868050331600,11.39533154296875,-5.6282548904418945,2.2350668907165527,-1.8884565830230713
1717003868059997400,11.40499755859375,-4.848502159118652,2.0375304222106934,-1.5704233646392822
1717003868069663000,11.4146630859375,-4.249795913696289,1.8851933479309082,-0.770216703414917
1717003868079328500,11.42432861328125,-4.2108154296875,1.5985898971557617,-0.08786559104919434
1717003868088994000,11.433994140625,-3.0975027084350586,1.111985683441162,0.22148537635803223
1717003868098659600,11.44365966796875,-2.0686073303222656,0.6988074779510498,0.07879161834716797
1717003868108325000,11.4533251953125,-1.438136100769043,0.6229062080383301,-0.37230563163757324
1717003868117990700,11.46299072265625,-1.568110466003418,0.8605945110321045,-0.60697340965271
1717003868127656400,11.472656494140624,-1.4806127548217773,1.1491522789001465,-0.6579165458679199
1717003868137322000,11.482322021484375,-0.8984975814819336,1.4665629863739014,-0.9041831493377686
1717003868146987500,11.491987548828124,-0.5132122039794922,1.7667088508605957,-1.1841964721679688
1717003868156653000,11.501653076171875,-0.28702735900878906,2.1647305488586426,-1.5844357013702393
1717003868166318600,11.511318603515624,0.9876289367675781,2.224236488342285,-1.2916326522827148
1717003868175984000,11.520984130859375,1.313136100769043,2.177985668182373,-0.4365065097808838
1717003868185650000,11.53064990234375,0.2531604766845703,2.1434826850891113,0.43832874298095703
1717003868195315500,11.5403154296875,-0.17092609405517578,1.9703588485717773,1.0658600330352783
1717003868204981000,11.54998095703125,0.695002555847168,1.292245626449585,1.775317668914795
1717003868214646500,11.559646484375,1.8149499893188477,0.6898057460784912,2.1288177967071533
1717003868224312000,11.56931201171875,2.4204001426696777,0.3752288222312927,2.0796055793762207
1717003868233977600,11.5789775390625,1.8399591445922852,0.2105567455291748,1.631636619567871
1717003868243643100,11.58864306640625,1.9387974739074707,0.031212151050567627,1.2721238136291504
1717003868253309000,11.598308837890626,2.021949291229248,-0.12268644571304321,1.207801103591919
1717003868262974500,11.607974365234375,1.666259765625,-0.18469083309173584,1.1472227573394775
1717003868272640000,11.617639892578126,1.4508638381958008,-0.15477263927459717,1.076087236404419
1717003868282305500,11.627305419921875,1.0155067443847656,0.03486025333404541,1.0296311378479004
1717003868291971000,11.63697119140625,0.35970211029052734,0.2392216920852661,0.8813138008117676
1717003868301636600,11.64663671875,0.874969482421875,0.40123772621154785,0.9239094257354736
1717003868311302100,11.65630224609375,1.2865962982177734,0.5754400491714478,1.0108733177185059
1717003868320968000,11.665968017578125,1.469827651977539,0.5922248363494873,1.202582597732544
1717003868330633500,11.675633544921874,1.7887134552001953,0.7080005407333374,1.4618468284606934
1717003868340299000,11.685299072265625,2.162139892578125,0.7621382474899292,1.482623815536499
1717003868349964500,11.694964599609374,1.9509358406066895,0.819432258605957,1.5849947929382324
1717003868359630000,11.704630126953125,1.5302700996398926,0.7634303569793701,1.8332977294921875
1717003868369295600,11.714295654296874,1.081770896911621,0.7550263404846191,2.0193800926208496
1717003868378961200,11.723961181640625,0.4317893981933594,0.7284655570983887,2.305436849594116
1717003868388627000,11.733626953125,-0.07196855545043945,0.7601475715637207,2.4385151863098145
1717003868398292500,11.74329248046875,-0.36835336685180664,0.7222270965576172,2.52238392829895
1717003868407958000,11.7529580078125,-0.005016803741455078,0.6222126483917236,2.5067646503448486
1717003868417623600,11.76262353515625,1.1064462661743164,0.6427829265594482,2.604428291320801
1717003868427289000,11.7722890625,2.0362720489501953,0.7376737594604492,2.4310789108276367
1717003868436954600,11.78195458984375,2.5779812335968018,0.8669528961181641,2.417085886001587
1717003868446620200,11.7916201171875,2.653225898742676,0.8388767242431641,2.143230676651001
1717003868456286000,11.801285888671876,2.6323556900024414,0.9264063835144043,1.9186105728149414
1717003868465951500,11.810951416015625,2.6459851264953613,0.7266030311584473,1.3465566635131836
1717003868475617000,11.820616943359376,2.534806728363037,0.46213579177856445,0.7268767356872559
1717003868485282600,11.830282470703125,1.983762502670288,0.36664867401123047,0.3182697296142578
1717003868494948000,11.839947998046876,1.812361240386963,0.5264811515808105,0.5392136573791504
1717003868504613600,11.849613525390625,1.7199623584747314,0.835289478302002,1.1487712860107422
1717003868514279200,11.859279052734376,1.9016802310943604,1.0356760025024414,1.1771717071533203
1717003868523945000,11.868945068359375,2.365541934967041,0.8823485374450684,1.3467273712158203
1717003868533610500,11.878610595703124,2.857471227645874,0.5445342063903809,0.9515585899353027
1717003868543276000,11.888276123046875,3.1443753242492676,-0.0010786056518554688,0.37542295455932617
1717003868552941600,11.897941650390624,3.327216386795044,-0.8793282508850098,-0.15782594680786133
1717003868562607000,11.907607177734375,3.0224177837371826,-1.677912712097168,-0.5074481964111328
1717003868572272600,11.917272705078124,1.7404847145080566,-2.401841163635254,-0.8438515663146973
1717003868581938200,11.926938232421875,-1.5901267528533936,-3.164931297302246,-1.2417035102844238
1717003868591604000,11.93660400390625,-2.7726449966430664,-3.151608467102051,-1.195742130279541
1717003868601269500,11.94626953125,-2.3974661827087402,-1.1242780685424805,-0.3894004821777344
1717003868610935000,11.95593505859375,-1.6025850772857666,-0.15362548828125,0.344912052154541
1717003868620600600,11.9656005859375,-0.6538972854614258,1.1844305992126465,1.0869536399841309
1717003868630266000,11.97526611328125,-0.23254072666168213,1.8389649391174316,1.5566086769104004
1717003868639931600,11.984931640625,-0.20346200466156006,2.183044910430908,1.579924464225769
1717003868649597400,11.994597412109375,-0.8308165669441223,2.487351417541504,1.6227731704711914
1717003868659263000,12.004262939453126,-1.3782472610473633,2.912950038909912,1.5817780494689941
1717003868668928500,12.013928466796875,-1.6630395650863647,2.632957935333252,1.5486503839492798
1717003868678594000,12.023593994140626,-1.9685733318328857,2.582657814025879,1.3242316246032715
1717003868688259600,12.033259521484375,-2.0849077701568604,2.2089786529541016,1.0867226123809814
1717003868697925000,12.042925048828126,-2.063046932220459,1.91514253616333,0.8181469440460205
1717003868707590700,12.052590576171875,-1.8892312049865723,1.8715901374816895,0.7094433307647705
1717003868717256400,12.06225634765625,-1.6715835332870483,1.9014453887939453,0.5814416408538818
1717003868726922000,12.071921875,-1.5884678363800049,2.233816146850586,0.34070277214050293
1717003868736587500,12.08158740234375,-1.280197262763977,1.994288444519043,0.10613775253295898
1717003868746253000,12.091253173828125,-0.8615611791610718,1.9053974151611328,-0.25470662117004395
1717003868755918600,12.100918701171874,-0.7886002063751221,1.6514477729797363,-0.5489850044250488
1717003868765584100,12.110584228515625,-0.9078283905982971,1.3432350158691406,-0.7673485279083252
1717003868775250000,12.12025,-0.9351510405540466,0.7621755599975586,-0.9984385967254639
1717003868784915500,12.12991552734375,-0.8155351877212524,0.12943744659423828,-1.2693462371826172
1717003868794581000,12.1395810546875,-0.6181713342666626,-0.6332845687866211,-1.641357421875
1717003868804246500,12.14924658203125,-0.4018615484237671,-0.8360586166381836,-2.166968584060669
1717003868813912000,12.158912109375,0.02100825309753418,-1.681626319885254,-2.7529022693634033
1717003868823577600,12.16857763671875,-0.1416759490966797,-1.419107437133789,-2.914199113845825
1717003868833243100,12.1782431640625,-0.1665252447128296,-2.3479013442993164,-3.2385025024414062
1717003868842909000,12.187908935546876,-1.243025541305542,-1.7429389953613281,-3.9659900665283203
1717003868852574500,12.197574462890625,-0.5130184888839722,-1.7237625122070312,-2.85019850730896
1717003868862240000,12.207239990234376,-0.09917020797729492,-1.3483123779296875,-1.628100872039795
