time,seconds_elapsed,z,y,x
1717001408504528400,0.1015283203125,0,0,0
1717001408514194700,0.111194580078125,0.014348030090332031,0.000035881996154785156,0.00089263916015625
1717001408523861000,0.120861083984375,0.031958580017089844,0.0016106367111206055,0.0004734992980957031
1717001408533527600,0.130527587890625,0.041800498962402344,0.0007238388061523438,0.0010051727294921875
1717001408543193900,0.14019384765625,0.05020332336425781,0.003064870834350586,0.006442546844482422
1717001408552860200,0.149860107421875,0.06294059753417969,0.00013685226440429688,0.012371540069580078
1717001408562526500,0.1595263671875,0.0691680908203125,-0.005591869354248047,0.016872167587280273
1717001408572192800,0.16919287109375,0.058991432189941406,-0.007565736770629883,0.022332191467285156
1717001408581859000,0.178859130859375,0.04242992401123047,-0.016495585441589355,0.025856971740722656
1717001408591525600,0.188525634765625,0.0374298095703125,-0.025079965591430664,0.03248858451843262
1717001408601192000,0.19819189453125,0.02976512908935547,-0.02029860019683838,0.04393196105957031
1717001408610858200,0.207858154296875,0.0038728713989257812,-0.02038753032684326,0.03856611251831055
1717001408620524500,0.217524658203125,-0.025857925415039062,-0.01784074306488037,0.026154041290283203
1717001408630190800,0.22719091796875,-0.04558086395263672,-0.014601469039916992,0.007743358612060547
1717001408639857200,0.236857177734375,-0.06464004516601562,-0.007975935935974121,-0.019857168197631836
1717001408649523500,0.2465234375,-0.0787038803100586,-0.0049277544021606445,-0.04983258247375488
1717001408659189800,0.256189697265625,-0.0996856689453125,0.003587961196899414,-0.07946324348449707
1717001408668856300,0.265856201171875,-0.12554550170898438,0.006045222282409668,-0.10317611694335938
1717001408678522600,0.275522705078125,-0.1451406478881836,0.005312204360961914,-0.12500858306884766
1717001408688189000,0.28518896484375,-0.15202808380126953,0.006255745887756348,-0.14969444274902344
1717001408697855200,0.294855224609375,-0.15622615814208984,0.01557469367980957,-0.17184686660766602
1717001408707521500,0.304521484375,-0.1720876693725586,0.028490781784057617,-0.19238734245300293
1717001408717187800,0.314187744140625,-0.1878213882446289,0.03632289171218872,-0.20625948905944824
1717001408726854100,0.323854248046875,-0.19132232666015625,0.046633362770080566,-0.2224273681640625
1717001408736520700,0.333520751953125,-0.18469810485839844,0.05532556772232056,-0.24720430374145508
1717001408746187000,0.34318701171875,-0.17735767364501953,0.06701624393463135,-0.27390623092651367
1717001408755853300,0.352853271484375,-0.15561389923095703,0.08548450469970703,-0.29770708084106445
1717001408765519600,0.36251953125,-0.11318397521972656,0.10711944103240967,-0.3023662567138672
1717001408775186000,0.37218603515625,-0.055510520935058594,0.11934149265289307,-0.30205512046813965
1717001408784852200,0.381852294921875,0.007683753967285156,0.12872040271759033,-0.2991752624511719
1717001408794518800,0.391518798828125,0.06958198547363281,0.12808215618133545,-0.3014063835144043
1717001408804185000,0.40118505859375,0.1278829574584961,0.12898242473602295,-0.30362606048583984
1717001408813851400,0.410851318359375,0.14722251892089844,0.12665939331054688,-0.29651379585266113
1717001408823517700,0.420517578125,0.14200782775878906,0.1194843053817749,-0.2801473140716553
1717001408833184000,0.43018408203125,0.14093399047851562,0.10630398988723755,-0.24767637252807617
1717001408842850300,0.439850341796875,0.13957881927490234,0.09255057573318481,-0.21198320388793945
1717001408852516600,0.4495166015625,0.1265125274658203,0.08334320783615112,-0.18988323211669922
1717001408862183200,0.45918310546875,0.09509658813476562,0.08809590339660645,-0.18108344078063965
1717001408871849500,0.468849365234375,0.06023406982421875,0.09516489505767822,-0.177323579788208
1717001408881515800,0.478515869140625,0.029783248901367188,0.09820055961608887,-0.18793678283691406
1717001408891182000,0.48818212890625,0.011091232299804688,0.09774672985076904,-0.20006704330444336
1717001408900848400,0.497848388671875,0.01311492919921875,0.10319113731384277,-0.20872282981872559
1717001408910514700,0.5075146484375,0.015603065490722656,0.10918283462524414,-0.19882988929748535
1717001408920181000,0.517180908203125,0.014909744262695312,0.10381114482879639,-0.16863465309143066
1717001408929847600,0.52684765625,0.03863716125488281,0.09438204765319824,-0.13045310974121094
1717001408939513900,0.536513916015625,0.09612846374511719,0.08786475658416748,-0.09530043601989746
1717001408949180200,0.54618017578125,0.15886306762695312,0.08337056636810303,-0.0688316822052002
1717001408958846500,0.555846435546875,0.21634960174560547,0.0992501974105835,-0.02001190185546875
1717001408968512800,0.5655126953125,0.2702608108520508,0.12386190891265869,0.05652809143066406
1717001408978179000,0.575178955078125,0.33327388763427734,0.1298811435699463,0.11776852607727051
1717001408987845400,0.584845458984375,0.40182018280029297,0.09857010841369629,0.1529371738433838
1717001408997512000,0.594511962890625,0.4597816467285156,0.044794678688049316,0.16651034355163574
1717001409007178200,0.60417822265625,0.5089473724365234,-0.012388467788696289,0.18157172203063965
1717001409016844500,0.613844482421875,0.5684661865234375,-0.07372891902923584,0.19490814208984375
1717001409026510800,0.6235107421875,0.6662960052490234,-0.09242832660675049,0.2098238468170166
1717001409036177200,0.63317724609375,0.7476882934570312,-0.1360940933227539,0.16071677207946777
1717001409045843500,0.642843505859375,0.7902412414550781,-0.18090450763702393,0.07042074203491211
1717001409055509800,0.652509765625,0.6869077682495117,-0.22252953052520752,-0.008519649505615234
1717001409065176000,0.662176025390625,0.5029125213623047,-0.21244823932647705,-0.04864382743835449
1717001409074842600,0.671842529296875,0.3149299621582031,-0.14775598049163818,-0.020617246627807617
1717001409084509000,0.681509033203125,0.1892986297607422,-0.10246014595031738,0.04615163803100586
1717001409094175200,0.69117529296875,0.14662647247314453,-0.09060084819793701,0.11524295806884766
1717001409103841500,0.700841552734375,0.1652545928955078,-0.0833970308303833,0.18578219413757324
1717001409113507800,0.7105078125,0.14076805114746094,-0.053876519203186035,0.24976015090942383
1717001409123174100,0.720174072265625,0.08935546875,-0.012978672981262207,0.296004056930542
1717001409132840400,0.72984033203125,0.054017066955566406,-0.006658673286437988,0.2830653190612793
1717001409142507000,0.739507080078125,0.1538066864013672,-0.14931261539459229,0.2905240058898926
1717001409152173300,0.74917333984375,0.22208690643310547,-0.2857431173324585,0.21459436416625977
1717001409161839600,0.758839599609375,0.2645120620727539,-0.3054846525192261,0.02083611488342285
1717001409171506000,0.768505859375,0.3322629928588867,-0.2485213279724121,-0.18219614028930664
1717001409181172200,0.778172119140625,0.44585418701171875,-0.19924962520599365,-0.2926788330078125
1717001409190838500,0.787838623046875,0.5616683959960938,-0.19325625896453857,-0.28745388984680176
1717001409200504800,0.7975048828125,0.6305389404296875,-0.21219056844711304,-0.24913716316223145
1717001409210171400,0.80717138671875,0.6213455200195312,-0.2295181155204773,-0.20406889915466309
1717001409219837700,0.816837646484375,0.5146980285644531,-0.24202960729599,-0.17849111557006836
1717001409229504000,0.82650390625,0.31735801696777344,-0.24252164363861084,-0.18902182579040527
1717001409239170300,0.83617041015625,0.09454822540283203,-0.23007649183273315,-0.22360444068908691
1717001409248836600,0.845836669921875,-0.12322425842285156,-0.18493109941482544,-0.27275514602661133
1717001409258503000,0.8555029296875,-0.31855201721191406,-0.09176301956176758,-0.3363199234008789
1717001409268169200,0.865169189453125,-0.5052738189697266,0.025855064392089844,-0.39522528648376465
1717001409277835800,0.874835693359375,-0.6350326538085938,0.12801897525787354,-0.37763166427612305
1717001409287502000,0.884502197265625,-0.6869497299194336,0.19296953082084656,-0.28783512115478516
1717001409297168400,0.89416845703125,-0.630767822265625,0.19518229365348816,-0.1747899055480957
1717001409306834700,0.903834716796875,-0.4701862335205078,0.13865530490875244,-0.06102776527404785
1717001409316501000,0.9135009765625,-0.2480754852294922,0.05456185340881348,0.04288363456726074
1717001409326167300,0.923167236328125,0.0024175643920898438,-0.008291065692901611,0.12942790985107422
1717001409335833600,0.93283349609375,0.2335948944091797,-0.03164738416671753,0.21031880378723145
1717001409345500200,0.942500244140625,0.40907859802246094,-0.040332019329071045,0.2846798896789551
1717001409355166500,0.95216650390625,0.4899263381958008,-0.08989644050598145,0.3482966423034668
1717001409364832800,0.961832763671875,0.4705829620361328,-0.16543477773666382,0.38662052154541016
1717001409374499000,0.9714990234375,0.37685298919677734,-0.07601958513259888,0.3658289909362793
1717001409384165400,0.981165283203125,0.16085147857666016,-0.06955832242965698,0.25695061683654785
1717001409393831700,0.990831787109375,-0.02388763427734375,-0.1342308521270752,0.09080195426940918
1717001409403498000,1.000498046875,-0.17206954956054688,-0.2504310607910156,0.01083993911743164
1717001409413164300,1.010164306640625,-0.30388736724853516,-0.4005090594291687,0.017879486083984375
1717001409422830600,1.01983056640625,-0.397369384765625,-0.5569398403167725,0.048474788665771484
1717001409432497200,1.0294970703125,-0.4625244140625,-0.6659490466117859,0.07464838027954102
1717001409442163500,1.03916357421875,-0.5350790023803711,-0.6433682441711426,-0.009617805480957031
1717001409451829800,1.048829833984375,-0.6490612030029297,-0.5026484727859497,-0.17538070678710938
1717001409461496000,1.05849609375,-0.8207969665527344,-0.2670811414718628,-0.3331623077392578
1717001409471162400,1.068162353515625,-1.0445594787597656,0.049959659576416016,-0.5099649429321289
1717001409480828700,1.07782861328125,-1.3068857192993164,0.37230736017227173,-0.7377767562866211
1717001409490495000,1.087494873046875,-1.5507068634033203,0.4317936301231384,-0.8160200119018555
1717001409500161300,1.097161376953125,-1.7249431610107422,-0.004622936248779297,-0.576484203338623
1717001409509827800,1.106827880859375,-1.7637290954589844,-0.6094542741775513,-0.1191096305847168
1717001409519494100,1.116494140625,-1.6806745529174805,-1.0103243589401245,0.310823917388916
1717001409529160400,1.126160400390625,-1.6948156356811523,-1.2655192613601685,0.6314554214477539
1717001409538826800,1.13582666015625,-1.8068065643310547,-1.6473937034606934,1.0204658508300781
1717001409548493000,1.1454931640625,-1.9829349517822266,-2.0985236167907715,1.2406744956970215
1717001409558159400,1.155159423828125,-2.2650680541992188,-2.4290668964385986,1.1592044830322266
1717001409567825700,1.16482568359375,-2.6139259338378906,-2.781966209411621,0.9962306022644043
1717001409577492200,1.1744921875,-2.8924269676208496,-3.1148009300231934,0.7844753265380859
1717001409587158500,1.184158447265625,-3.0789523124694824,-3.313015937805176,0.48724985122680664
1717001409596824800,1.193824951171875,-3.0571107864379883,-3.4333040714263916,0.14847373962402344
1717001409606491100,1.2034912109375,-2.7659640312194824,-3.529932975769043,-0.21441030502319336
1717001409616157400,1.213157470703125,-2.1371536254882812,-3.877000093460083,-0.6541194915771484
1717001409625823700,1.22282373046875,-1.5467848777770996,-4.066132545471191,-1.1273365020751953
1717001409635490000,1.232489990234375,-0.8258447647094727,-4.379484176635742,-1.7043776512145996
1717001409645156600,1.242156494140625,-0.1393575668334961,-4.619580268859863,-2.307004928588867
1717001409654823000,1.251822998046875,0.5136833190917969,-4.703856468200684,-2.828951835632324
1717001409664489200,1.2614892578125,0.9286999702453613,-4.605605125427246,-3.126967430114746
1717001409674155500,1.271155517578125,0.9886627197265625,-4.308795928955078,-3.1270203590393066
1717001409683821800,1.28082177734375,0.7331976890563965,-3.841693639755249,-2.8097290992736816
1717001409693488000,1.290488037109375,0.3073697090148926,-3.210941791534424,-2.1933956146240234
1717001409703154400,1.300154541015625,-0.009598970413208008,-2.4669156074523926,-1.4059090614318848
1717001409712820700,1.30982080078125,0.2879018783569336,-1.69565749168396,-0.6835899353027344
1717001409722487300,1.3194873046875,1.2593889236450195,-0.925342321395874,-0.0081787109375
1717001409732153600,1.329153564453125,2.5135715007781982,-0.21354961395263672,0.7112741470336914
1717001409741820000,1.33881982421875,4.033126354217529,0.5041744709014893,1.323883056640625
1717001409751486200,1.348486328125,5.52005672454834,1.293982982635498,1.9266176223754883
1717001409761152500,1.358152587890625,6.6087541580200195,2.1619930267333984,2.574342727661133
1717001409770818800,1.36781884765625,7.073261737823486,3.0240912437438965,3.1625280380249023
1717001409780485000,1.377485107421875,6.931023597717285,3.90004301071167,3.699432373046875
1717001409790151400,1.3871513671875,6.241631031036377,4.852604866027832,4.200793266296387
1717001409799817700,1.396817626953125,5.152565002441406,5.8428754806518555,4.744629859924316
1717001409809484300,1.406484375,3.9004461765289307,6.786374092102051,5.344923973083496
1717001409819150600,1.416150634765625,2.670060873031616,7.563101291656494,5.900936126708984
1717001409828817000,1.42581689453125,1.4370079040527344,8.135845184326172,6.298611640930176
1717001409838483200,1.435483154296875,0.20782804489135742,8.495603561401367,6.429015159606934
1717001409848149500,1.4451494140625,-1.0052006244659424,8.62179946899414,6.303025245666504
1717001409857815800,1.45481591796875,-2.162407875061035,8.538150787353516,5.967820167541504
1717001409867482000,1.464482177734375,-3.173584461212158,8.300082206726074,5.424871444702148
1717001409877148400,1.4741484375,-3.9636380672454834,7.930952072143555,4.7251787185668945
1717001409886815000,1.48381494140625,-4.448687553405762,7.441252708435059,3.883523941040039
1717001409896481300,1.493481201171875,-4.494231700897217,6.795734405517578,2.89656925201416
1717001409906147600,1.503147705078125,-4.1668701171875,6.01944637298584,2.0043764114379883
1717001409915814000,1.51281396484375,-3.7562336921691895,5.049187183380127,1.2678823471069336
1717001409925480200,1.522480224609375,-4.176784515380859,3.3918585777282715,0.5272340774536133
1717001409935146500,1.532146484375,-5.4751129150390625,1.6519696712493896,-0.6826410293579102
1717001409944812800,1.541812744140625,-5.976762771606445,1.3996671438217163,-1.39947509765625
1717001409954479000,1.55147900390625,-5.563887119293213,1.3596222400665283,-1.6531591415405273
1717001409964145700,1.561145751953125,-4.709164142608643,0.6888298988342285,-1.4367361068725586
1717001409973812000,1.57081201171875,-3.463552951812744,0.09902584552764893,-1.2869911193847656
1717001409983478300,1.580478271484375,-2.172720432281494,-0.5331931114196777,-1.1453666687011719
1717001409993144600,1.59014453125,-1.2119355201721191,-1.150883674621582,-1.1062402725219727
1717001410002811000,1.599810791015625,-0.4971022307872772,-1.523106336593628,-1.1622505187988281
1717001410012477200,1.609477294921875,-0.13772059977054596,-1.64008629322052,-1.285069465637207
1717001410022143500,1.6191435546875,0.09871868789196014,-1.6464555263519287,-1.3777179718017578
1717001410031809800,1.628809814453125,0.10914565622806549,-1.6816105842590332,-1.364034652709961
1717001410041476400,1.638476318359375,-0.06440544128417969,-1.6177356243133545,-1.386195182800293
1717001410051142700,1.648142578125,-0.05084875226020813,-1.6853225231170654,-1.1761884689331055
1717001410060809000,1.65780908203125,0.07598793506622314,-1.881354570388794,-0.9001598358154297
1717001410070475300,1.667475341796875,0.2647855877876282,-2.043762445449829,-0.6719779968261719
1717001410080141600,1.6771416015625,0.3051152229309082,-2.1071205139160156,-0.5878820419311523
1717001410089808000,1.686807861328125,0.3607969284057617,-2.2007808685302734,-0.5456933975219727
1717001410099474200,1.69647412109375,0.406267374753952,-2.3312690258026123,-0.6178417205810547
1717001410109140500,1.706140380859375,0.4102867543697357,-2.339535713195801,-0.36273765563964844
1717001410118807000,1.71580712890625,0.3564741909503937,-2.3918352127075195,0.16402435302734375
1717001410128473300,1.725473388671875,0.23931080102920532,-2.4416353702545166,0.6424026489257812
1717001410138139600,1.7351396484375,0.013495147228240967,-2.542111873626709,1.0655384063720703
1717001410147806000,1.744805908203125,-0.28011828660964966,-2.688309907913208,1.4302349090576172
1717001410157472300,1.75447216796875,-0.4936563968658447,-2.888202667236328,1.7820520401000977
1717001410167138600,1.764138671875,-0.7002376317977905,-2.825906991958618,1.6940631866455078
1717001410176804900,1.773804931640625,-0.9399168491363525,-2.7288057804107666,1.550154685974121
1717001410186471200,1.78347119140625,-1.105386734008789,-2.602510690689087,1.3919153213500977
1717001410196137500,1.793137451171875,-1.187820315361023,-2.3971221446990967,1.1440858840942383
1717001410205803800,1.8028037109375,-1.1925325393676758,-2.1021602153778076,0.8263797760009766
1717001410215470300,1.81247021484375,-1.1444876194000244,-1.8167142868041992,0.5752592086791992
1717001410225136600,1.82213671875,-0.9103786945343018,-1.4072959423065186,0.42516326904296875
1717001410234803000,1.831802978515625,-0.6350735425949097,-0.9347748756408691,0.2616415023803711
1717001410244469200,1.84146923828125,-0.4157637655735016,-0.4447817802429199,0.037278175354003906
1717001410254135600,1.851135498046875,-0.2307637333869934,0.0029735565185546875,-0.12302494049072266
1717001410263801900,1.8608017578125,-0.055570363998413086,0.40665578842163086,-0.22655677795410156
1717001410273468200,1.87046826171875,0.11106300354003906,0.7225315570831299,-0.2572975158691406
1717001410283134500,1.880134521484375,0.19178247451782227,1.0798323154449463,-0.3939647674560547
1717001410292800800,1.88980078125,0.27393317222595215,1.4533069133758545,-0.5344581604003906
1717001410302467300,1.89946728515625,0.41461557149887085,1.7845773696899414,-0.5740461349487305
1717001410312133600,1.909133544921875,0.594261109828949,2.0290300846099854,-0.4951443672180176
1717001410321800000,1.918800048828125,0.749933123588562,2.178898811340332,-0.37900495529174805
1717001410331466200,1.92846630859375,0.8245608806610107,2.250741481781006,-0.3096904754638672
1717001410341132500,1.938132568359375,0.7612965106964111,2.267061471939087,-0.28960371017456055
1717001410350798800,1.947798828125,0.579578697681427,2.255392074584961,-0.22089767456054688
1717001410360465200,1.957465087890625,0.2525564432144165,2.1947689056396484,-0.05627727508544922
1717001410370131500,1.96713134765625,-0.21997952461242676,2.0105113983154297,0.15329837799072266
1717001410379797800,1.9767978515625,-0.6742340326309204,1.731247901916504,0.38918590545654297
1717001410389464300,1.98646435546875,-0.8963218927383423,1.4106273651123047,0.6307125091552734
1717001410399130600,1.996130615234375,-0.914614200592041,1.1041550636291504,0.8171319961547852
1717001410408797000,2.005796875,-0.7758837938308716,0.7823634147644043,0.9598789215087891
1717001410418463200,2.015463134765625,-0.5716414451599121,0.44034814834594727,1.158444881439209
1717001410428129500,2.025129638671875,-0.4115952253341675,0.106231689453125,1.4014363288879395
1717001410437795800,2.0347958984375,-0.3432048559188843,-0.2154979705810547,1.6523175239562988
1717001410447462100,2.044462158203125,-0.3915506601333618,-0.4913930892944336,1.8230905532836914
1717001410457128400,2.05412841796875,-0.48431265354156494,-0.7024621963500977,1.9175801277160645
1717001410466795000,2.063794921875,-0.5404576063156128,-0.806828498840332,1.905519962310791
1717001410476461300,2.07346142578125,-0.5264362096786499,-0.773834228515625,1.7246170043945312
1717001410486127600,2.083127685546875,-0.41926074028015137,-0.637847900390625,1.40629243850708
1717001410495794000,2.0927939453125,-0.27203118801116943,-0.4976921081542969,1.0532970428466797
1717001410505460200,2.102460205078125,-0.13776719570159912,-0.44283199310302734,0.7269892692565918
1717001410515126500,2.11212646484375,-0.042820096015930176,-0.4594688415527344,0.4589195251464844
1717001410524792800,2.121792724609375,0.024884581565856934,-0.516261100769043,0.24587631225585938
1717001410534459100,2.131459228515625,0.051030755043029785,-0.43544673919677734,-0.005769252777099609
1717001410544125400,2.14112548828125,0.06725692749023438,-0.34358882904052734,-0.16655635833740234
1717001410553791700,2.150791748046875,0.07869625091552734,-0.25835609436035156,-0.2943601608276367
1717001410563458000,2.1604580078125,0.07389342784881592,-0.118255615234375,-0.4130535125732422
1717001410573124600,2.17012451171875,0.029320478439331055,-0.018510818481445312,-0.45827198028564453
1717001410582791000,2.179791015625,-0.08644819259643555,0.12280750274658203,-0.5035567283630371
1717001410592457200,2.189457275390625,-0.27243804931640625,0.21665287017822266,-0.5130386352539062
1717001410602123500,2.19912353515625,-0.4788200855255127,0.24332332611083984,-0.48943281173706055
1717001410611789800,2.208789794921875,-0.5823893547058105,0.41938257217407227,-0.5854935646057129
1717001410621456100,2.2184560546875,-0.560207724571228,0.42015790939331055,-0.5445737838745117
1717001410631122400,2.228122314453125,-0.5137802362442017,0.3219170570373535,-0.43850135803222656
1717001410640788700,2.237788818359375,-0.5050479173660278,0.2891874313354492,-0.3876953125
1717001410650455000,2.247455078125,-0.4842120409011841,0.2618694305419922,-0.32363414764404297
1717001410660121600,2.25712158203125,-0.4361839294433594,0.12374305725097656,-0.16268491744995117
1717001410669788000,2.266787841796875,-0.41145598888397217,0.056372642517089844,-0.0938563346862793
1717001410679454200,2.2764541015625,-0.381986141204834,-0.0022487640380859375,-0.00974416732788086
1717001410689120500,2.28612060546875,-0.37309467792510986,-0.09920310974121094,0.06693029403686523
1717001410698786800,2.295786865234375,-0.4002542495727539,-0.1557159423828125,0.11681699752807617
1717001410708453000,2.305453125,-0.3895460367202759,-0.23303699493408203,0.21426677703857422
1717001410718119400,2.315119384765625,-0.3387264013290405,-0.2783651351928711,0.28116893768310547
1717001410727785700,2.32478564453125,-0.2570873498916626,-0.2151660919189453,0.267397403717041
1717001410737452000,2.3344521484375,-0.20184552669525146,-0.10672855377197266,0.198760986328125
1717001410747118300,2.344118408203125,-0.1870715618133545,-0.03285026550292969,0.14222240447998047
1717001410756785000,2.353784912109375,-0.21442973613739014,0.02899932861328125,0.061197757720947266
1717001410766451200,2.363451171875,-0.2510569095611572,0.09133338928222656,-0.0243988037109375
1717001410776117500,2.373117431640625,-0.2743324041366577,0.08365726470947266,-0.06166648864746094
1717001410785783800,2.38278369140625,-0.2858971357345581,0.025157928466796875,-0.050038814544677734
1717001410795450000,2.3924501953125,-0.2940012216567993,0.023220062255859375,-0.04257965087890625
1717001410805116400,2.402116455078125,-0.2979801893234253,0.050067901611328125,-0.04979848861694336
1717001410814782700,2.41178271484375,-0.29163575172424316,0.06348037719726562,-0.058057308197021484
1717001410824449000,2.421448974609375,-0.2732435464859009,0.061305999755859375,-0.07621908187866211
1717001410834115300,2.431115234375,-0.23961007595062256,0.015799522399902344,-0.07806158065795898
1717001410843782000,2.440781982421875,-0.21293997764587402,-0.006885528564453125,-0.10801315307617188
1717001410853448000,2.450447998046875,-0.1764746904373169,0.008906364440917969,-0.15116548538208008
1717001410863114500,2.460114501953125,-0.2037956714630127,0.02016162872314453,-0.20061779022216797
1717001410872780800,2.46978076171875,-0.24671649932861328,0.03634071350097656,-0.2521681785583496
1717001410882447000,2.479447021484375,-0.25063538551330566,0.025956153869628906,-0.27279090881347656
1717001410892113400,2.489113525390625,-0.25823307037353516,0.03223896026611328,-0.29558229446411133
1717001410901779700,2.49877978515625,-0.28181374073028564,0.13641929626464844,-0.38297510147094727
1717001410911446000,2.508446044921875,-0.27472496032714844,0.17042064666748047,-0.4236445426940918
1717001410921112300,2.5181123046875,-0.2511202096939087,0.10683441162109375,-0.4010910987854004
1717001410930778600,2.527778564453125,-0.257943332195282,0.1050405502319336,-0.3963613510131836
1717001410940445000,2.53744482421875,-0.2357274889945984,0.05495166778564453,-0.32796812057495117
1717001410950111200,2.547111328125,-0.2240663766860962,-0.014429092407226562,-0.2943406105041504
1717001410959777800,2.55677783203125,-0.24819940328598022,0.0023012161254882812,-0.33110904693603516
1717001410969444000,2.566444091796875,-0.2590092420578003,0.12127494812011719,-0.33180856704711914
1717001410979110400,2.5761103515625,-0.24159443378448486,0.2211599349975586,-0.31959104537963867
1717001410988776700,2.585776611328125,-0.23018157482147217,0.2880821228027344,-0.3043241500854492
1717001410998443000,2.595443115234375,-0.2354031801223755,0.3799285888671875,-0.32953691482543945
1717001411008109300,2.605109375,-0.23047363758087158,0.4262676239013672,-0.3249835968017578
1717001411017775600,2.614775634765625,-0.2239675521850586,0.44449710845947266,-0.3070039749145508
1717001411027442000,2.62444189453125,-0.22063744068145752,0.4616127014160156,-0.24675464630126953
1717001411037108200,2.634108154296875,-0.21956145763397217,0.49297428131103516,-0.1315469741821289
1717001411046774800,2.64377490234375,-0.20457863807678223,0.5288314819335938,0.00012874603271484375
1717001411056441000,2.653441162109375,-0.17748725414276123,0.5575904846191406,0.11922407150268555
1717001411066107400,2.663107421875,-0.16048729419708252,0.5532312393188477,0.18678569793701172
1717001411075773700,2.672773681640625,-0.14691591262817383,0.4949150085449219,0.21616363525390625
1717001411085440000,2.68243994140625,-0.1624000072479248,0.3961448669433594,0.24725770950317383
1717001411095106300,2.692106201171875,-0.19142615795135498,0.2569417953491211,0.2987518310546875
1717001411104772600,2.701772705078125,-0.2003495693206787,0.10149383544921875,0.3712325096130371
1717001411114439000,2.71143896484375,-0.19124984741210938,-0.02369976043701172,0.46844005584716797
1717001411124105200,2.721105224609375,-0.15375661849975586,-0.10123348236083984,0.5453529357910156
1717001411133771500,2.730771484375,-0.11830580234527588,-0.125701904296875,0.5866732597351074
1717001411143438000,2.74043798828125,-0.09824192523956299,-0.10236644744873047,0.5703535079956055
1717001411153104400,2.7501044921875,-0.09285330772399902,-0.08498668670654297,0.46500587463378906
1717001411162770700,2.759770751953125,-0.117950439453125,-0.07939624786376953,0.29370546340942383
1717001411172437000,2.76943701171875,-0.16407394409179688,-0.0830240249633789,0.10036802291870117
1717001411182103300,2.779103271484375,-0.2227250337600708,-0.059029579162597656,-0.07615518569946289
1717001411191769600,2.78876953125,-0.26893770694732666,-0.045310020446777344,-0.2000579833984375
1717001411201436000,2.798435791015625,-0.3006603717803955,-0.035025596618652344,-0.28723716735839844
1717001411211102200,2.808102294921875,-0.31535041332244873,-0.04247283935546875,-0.3393068313598633
1717001411220768500,2.8177685546875,-0.30587637424468994,-0.045920372009277344,-0.36153626441955566
1717001411230434800,2.827434814453125,-0.2710622549057007,-0.06923770904541016,-0.3458249568939209
1717001411240101000,2.83710107421875,-0.23575043678283691,-0.10008907318115234,-0.3090190887451172
1717001411249767400,2.846767333984375,-0.19559764862060547,-0.11683273315429688,-0.25084424018859863
1717001411259434000,2.85643408203125,-0.16953063011169434,-0.1338958740234375,-0.19302773475646973
1717001411269100300,2.866100341796875,-0.15208745002746582,-0.15183067321777344,-0.1296522617340088
1717001411278766600,2.8757666015625,-0.1589205265045166,-0.1875934600830078,-0.07825827598571777
1717001411288433000,2.885432861328125,-0.18922829627990723,-0.21991348266601562,-0.05552530288696289
1717001411298099200,2.89509912109375,-0.22289228439331055,-0.2678823471069336,-0.05179572105407715
1717001411307765500,2.904765625,-0.2663012742996216,-0.33121490478515625,-0.0688776969909668
1717001411317431800,2.914431884765625,-0.28282105922698975,-0.36078453063964844,-0.1114499568939209
1717001411327098000,2.92409814453125,-0.27497398853302,-0.3350362777709961,-0.15101408958435059
1717001411336764400,2.933764404296875,-0.23819661140441895,-0.2858543395996094,-0.17013883590698242
1717001411346430700,2.9434306640625,-0.18890178203582764,-0.2350778579711914,-0.1890547275543213
1717001411356097000,2.953096923828125,-0.14952361583709717,-0.19176387786865234,-0.2118668556213379
1717001411365763600,2.962763671875,-0.11960113048553467,-0.15317344665527344,-0.22371792793273926
1717001411375430000,2.972429931640625,-0.10456275939941406,-0.12879371643066406,-0.20827770233154297
1717001411385096200,2.98209619140625,-0.10317647457122803,-0.10459613800048828,-0.17120933532714844
1717001411394762500,2.991762451171875,-0.11209726333618164,-0.07381057739257812,-0.12276840209960938
1717001411404428800,3.0014287109375,-0.12897825241088867,-0.05095672607421875,-0.08031296730041504
1717001411414095000,3.01109521484375,-0.1352994441986084,-0.02417278289794922,-0.05336451530456543
1717001411423761400,3.020761474609375,-0.141363263130188,-0.0029783248901367188,-0.04192352294921875
1717001411433427700,3.030427734375,-0.14479219913482666,0.015045166015625,-0.03872251510620117
1717001411443094000,3.040093994140625,-0.149877667427063,0.020630836486816406,-0.05505180358886719
1717001411452760300,3.04976025390625,-0.15653753280639648,0.023604393005371094,-0.0924680233001709
1717001411462427000,3.059427001953125,-0.15779829025268555,0.026739120483398438,-0.15216398239135742
1717001411472093200,3.06909326171875,-0.15394294261932373,0.028082847595214844,-0.20937204360961914
1717001411481759500,3.078759521484375,-0.13584065437316895,0.013623237609863281,-0.259296178817749
1717001411491425800,3.08842578125,-0.11102104187011719,-0.004633903503417969,-0.29041481018066406
1717001411501092000,3.098092041015625,-0.0892406702041626,-0.017119407653808594,-0.28878092765808105
1717001411510758400,3.10775830078125,-0.06379866600036621,-0.012068748474121094,-0.26191091537475586
1717001411520424700,3.1174248046875,-0.04467153549194336,-0.009082794189453125,-0.21613454818725586
1717001411530091000,3.127091064453125,-0.0456928014755249,-0.030066490173339844,-0.169877290725708
1717001411539757300,3.13675732421875,-0.05893421173095703,-0.04909229278564453,-0.1403203010559082
1717001411549423600,3.146423583984375,-0.06692671775817871,-0.030202865600585938,-0.13957595825195312
1717001411559090000,3.15608984375,-0.06935060024261475,-0.020822525024414062,-0.14756441116333008
1717001411568756200,3.165756103515625,-0.06429839134216309,-0.0229949951171875,-0.1568307876586914
1717001411578422500,3.175422607421875,-0.05688345432281494,-0.017622947692871094,-0.14843010902404785
1717001411588089000,3.185089111328125,-0.052208542823791504,-0.014544486999511719,-0.12106943130493164
1717001411597755400,3.19475537109375,-0.05044293403625488,-0.009126663208007812,-0.09891653060913086
1717001411607421700,3.204421630859375,-0.0492703914642334,-0.0037431716918945312,-0.08893465995788574
1717001411617088000,3.214087890625,-0.04836630821228027,-0.0028400421142578125,-0.08788561820983887
1717001411626754300,3.22375439453125,-0.045439958572387695,0.02068328857421875,-0.10014152526855469
1717001411636420600,3.233420654296875,-0.026169180870056152,0.01991748809814453,-0.10531425476074219
1717001411646087000,3.2430869140625,-0.014245986938476562,-0.019985198974609375,-0.07776451110839844
1717001411655753200,3.252753173828125,-0.01567518711090088,-0.02691650390625,-0.021903276443481445
1717001411665419500,3.26241943359375,-0.01903212070465088,-0.0022211074829101562,0.038613080978393555
1717001411675085800,3.2720859375,-0.03304481506347656,0.03727531433105469,0.07603216171264648
1717001411684752100,3.281752197265625,-0.042289018630981445,0.06781196594238281,0.0746307373046875
1717001411694418700,3.291418701171875,-0.04102778434753418,0.09919357299804688,0.03120255470275879
1717001411704085000,3.3010849609375,-0.035980939865112305,0.12288761138916016,-0.03958892822265625
1717001411713751300,3.310751220703125,-0.051563382148742676,0.1248769760131836,-0.08811044692993164
1717001411723417600,3.32041748046875,-0.07377612590789795,0.12953758239746094,-0.10201573371887207
1717001411733084000,3.330083984375,-0.08633017539978027,0.1281108856201172,-0.10796236991882324
1717001411742750200,3.339750244140625,-0.10080206394195557,0.11533927917480469,-0.10982537269592285
1717001411752416500,3.34941650390625,-0.11112368106842041,0.060680389404296875,-0.10823178291320801
1717001411762082800,3.359082763671875,-0.11897408962249756,0.028348922729492188,-0.06140780448913574
1717001411771749000,3.3687490234375,-0.11540496349334717,0.030365943908691406,0.01943492889404297
1717001411781415400,3.37841552734375,-0.07610094547271729,0.23170852661132812,0.03526782989501953
1717001411791081700,3.388081787109375,-0.054717063903808594,0.3774290084838867,0.06829214096069336
1717001411800748300,3.397748291015625,-0.07314062118530273,0.49108219146728516,0.09900498390197754
1717001411810414600,3.40741455078125,-0.07059609889984131,0.5755882263183594,0.12289619445800781
1717001411820081000,3.417080810546875,-0.050116539001464844,0.7341318130493164,0.1360454559326172
1717001411829747200,3.426747314453125,-0.001787424087524414,0.8590898513793945,0.14852428436279297
1717001411839413500,3.43641357421875,0.025243759155273438,1.006521224975586,0.16011285781860352
1717001411849079800,3.446079833984375,0.055483102798461914,1.1526598930358887,0.18688154220581055
1717001411858746000,3.45574609375,0.08245968818664551,1.272681713104248,0.24350929260253906
1717001411868412400,3.465412353515625,0.07889175415039062,1.363560676574707,0.34192633628845215
1717001411878078700,3.47507861328125,0.04845362901687622,1.4750633239746094,0.49579811096191406
1717001411887745000,3.4847451171875,0.017465829849243164,1.6278858184814453,0.6574244499206543
1717001411897411300,3.494411376953125,0.031696975231170654,1.7866473197937012,0.844482421875
1717001411907077600,3.50407763671875,0.07758337259292603,1.918248176574707,0.9906048774719238
1717001411916744000,3.513743896484375,0.08384406566619873,1.9798083305358887,1.0560929775238037
1717001411926410200,3.52341015625,0.05159199237823486,1.9087390899658203,1.0959675312042236
1717001411936076800,3.533076904296875,0.03868144750595093,1.7047491073608398,1.1243464946746826
1717001411945743000,3.5427431640625,0.027691245079040527,1.3326501846313477,1.104547381401062
1717001411955409400,3.552409423828125,-0.00928562879562378,0.7621870040893555,1.0807547569274902
1717001411965075700,3.56207568359375,-0.1034846305847168,0.0636749267578125,1.065940499305725
1717001411974742000,3.571741943359375,-0.24722683429718018,-0.6100025177001953,1.0768388509750366
1717001411984408300,3.581408203125,-0.3479626774787903,-1.1152362823486328,1.1293017864227295
1717001411994074600,3.59107470703125,-0.37686240673065186,-1.4094476699829102,1.2111380100250244
1717001412003741000,3.600740966796875,-0.27013546228408813,-1.5500383377075195,1.3158488273620605
1717001412013407200,3.6104072265625,-0.0984310507774353,-1.7032585144042969,1.4031660556793213
1717001412023073500,3.620073486328125,0.14903539419174194,-1.875870704650879,1.4712562561035156
1717001412032739800,3.62973974609375,0.4065840244293213,-2.0359230041503906,1.4762465953826904
1717001412042406400,3.639406494140625,0.6286752820014954,-2.125835418701172,1.3895288705825806
1717001412052072700,3.64907275390625,0.8083717823028564,-2.132266044616699,1.2345227003097534
1717001412061739000,3.658739013671875,0.8493288159370422,-2.050623893737793,1.0603338479995728
1717001412071405300,3.6684052734375,0.7248735427856445,-1.8889837265014648,0.8376691937446594
1717001412081071600,3.678071533203125,0.5258029699325562,-1.7123613357543945,0.5394684076309204
1717001412090738000,3.687738037109375,0.26128292083740234,-1.530411720275879,0.1860516369342804
1717001412100404200,3.697404296875,-0.09072017669677734,-1.3313875198364258,-0.20818978548049927
1717001412110070500,3.707070556640625,-0.5049279928207397,-1.1374225616455078,-0.6152149438858032
1717001412119736800,3.71673681640625,-0.9107205271720886,-0.9805364608764648,-0.9752996563911438
1717001412129403100,3.726403076171875,-1.2942332029342651,-0.8902311325073242,-1.2438666820526123
1717001412139069400,3.7360693359375,-1.6136540174484253,-0.8238506317138672,-1.337996244430542
1717001412148735700,3.74573583984375,-1.7559117078781128,-0.7834377288818359,-1.256542682647705
1717001412158402300,3.75540234375,-1.7877813577651978,-0.7110805511474609,-1.0754032135009766
1717001412168068600,3.765068603515625,-1.7413671016693115,-0.6733083724975586,-0.9748057126998901
1717001412177735000,3.77473486328125,-1.6243484020233154,-0.6865139007568359,-0.9663021564483643
1717001412187401200,3.784401123046875,-1.4013760089874268,-0.7018003463745117,-1.0661492347717285
1717001412197067500,3.794067626953125,-1.0491913557052612,-0.6935815811157227,-1.3340742588043213
1717001412206733800,3.80373388671875,-0.6001381874084473,-0.6152143478393555,-1.5694910287857056
1717001412216400100,3.813400146484375,-0.19124197959899902,-0.5197906494140625,-1.6065994501113892
1717001412226066400,3.82306640625,0.14813995361328125,-0.4382457733154297,-1.5195882320404053
1717001412235732700,3.832732666015625,0.38952112197875977,-0.39191722869873047,-1.361158847808838
1717001412245399000,3.84239892578125,0.48978090286254883,-0.3731880187988281,-1.1355295181274414
1717001412255065300,3.8520654296875,0.4518451690673828,-0.3138542175292969,-0.8934708833694458
1717001412264731600,3.861731689453125,0.41437065601348877,-0.11605644226074219,-0.7118842601776123
1717001412274398000,3.87139794921875,0.37140440940856934,0.12317085266113281,-0.7426536083221436
1717001412284064300,3.881064208984375,0.344305157661438,0.32666969299316406,-0.9426875710487366
1717001412293730600,3.89073046875,0.3193141222000122,0.5149192810058594,-1.2797832489013672
1717001412303397000,3.900397216796875,0.2517740726470947,0.6936607360839844,-1.7055654525756836
1717001412313063400,3.9100634765625,0.2305009365081787,0.8540267944335938,-2.0864827632904053
1717001412322729700,3.919729736328125,0.21425485610961914,0.9629573822021484,-2.3344831466674805
1717001412332396000,3.92939599609375,0.20319557189941406,1.0183963775634766,-2.256375789642334
1717001412342062300,3.939062255859375,0.4098973274230957,0.9872674942016602,-2.2158303260803223
1717001412351728600,3.948728759765625,0.6165566444396973,0.9285097122192383,-2.062513828277588
1717001412361395000,3.95839501953125,0.78121018409729,0.8517351150512695,-1.723288893699646
1717001412371061200,3.968061279296875,1.0188173055648804,1.0722455978393555,-0.4606936275959015
1717001412380727600,3.9777275390625,1.1909736394882202,1.311232566833496,0.5648479461669922
1717001412390393900,3.987393798828125,1.2250910997390747,1.3175220489501953,1.0371026992797852
1717001412400060200,3.99706005859375,1.1230183839797974,1.1749181747436523,0.9973179697990417
1717001412409726500,4.0067265625,0.9317322969436646,1.0056591033935547,0.6573784351348877
1717001412419393000,4.01639306640625,0.7242470979690552,0.8728256225585938,0.17985399067401886
1717001412429059300,4.026059326171875,0.5531253814697266,0.7547750473022461,-0.33929547667503357
1717001412438725600,4.0357255859375,0.44875335693359375,0.6239709854125977,-0.7849164009094238
1717001412448392000,4.045391845703125,0.4036511182785034,0.49632930755615234,-1.0678579807281494
1717001412458058200,4.055058349609375,0.3985741138458252,0.3565406799316406,-1.2222723960876465
1717001412467724500,4.064724609375,0.3721461296081543,0.2123241424560547,-1.307760238647461
1717001412477390800,4.074390869140625,0.23595094680786133,0.06806468963623047,-1.3478209972381592
1717001412487057200,4.08405712890625,-0.05097556114196777,-0.056015968322753906,-1.3756710290908813
1717001412496723500,4.093723388671875,-0.48630356788635254,-0.14727115631103516,-1.4350675344467163
1717001412506389800,4.1033896484375,-1.032059669494629,-0.18067550659179688,-1.5114105939865112
1717001412516056000,4.11305615234375,-1.6239840984344482,-0.12771129608154297,-1.5801986455917358
1717001412525722400,4.122722412109375,-2.172980546951294,-0.023302078247070312,-1.6609870195388794
1717001412535388700,4.132388671875,-2.612051486968994,0.10848045349121094,-1.7540510892868042
1717001412545055000,4.142054931640625,-2.8835504055023193,0.23493194580078125,-1.8612726926803589
1717001412554721300,4.15172119140625,-2.952134370803833,0.35654258728027344,-1.9591434001922607
1717001412564387800,4.161387939453125,-2.833065986633301,0.4552755355834961,-2.011223316192627
1717001412574054100,4.17105419921875,-2.6274354457855225,0.5016450881958008,-2.052886962890625
1717001412583720400,4.180720458984375,-2.4087233543395996,0.4842977523803711,-2.0772523880004883
1717001412593386800,4.19038671875,-2.1986260414123535,0.39925098419189453,-2.060166597366333
1717001412603053000,4.200052978515625,-1.9693374633789062,0.27431488037109375,-1.9451606273651123
1717001412612719400,4.20971923828125,-1.6466805934906006,0.13824176788330078,-1.6778255701065063
1717001412622385700,4.2193857421875,-1.1717472076416016,0.013402938842773438,-1.1652575731277466
1717001412632052000,4.229052001953125,-0.6054823398590088,-0.07291698455810547,-0.5470463037490845
1717001412641718300,4.23871826171875,-0.14767241477966309,-0.13411331176757812,0.09241640567779541
1717001412651384600,4.248384521484375,0.12354850769042969,-0.1652240753173828,0.6663984656333923
1717001412661051000,4.25805078125,0.17671585083007812,-0.21730995178222656,1.1333972215652466
1717001412670717200,4.26771728515625,0.015015125274658203,-0.3535947799682617,1.4347599744796753
1717001412680383500,4.277383544921875,-0.158951997756958,-0.5363950729370117,1.5869176387786865
1717001412690049800,4.2870498046875,-0.2828221321105957,-0.7168855667114258,1.682601809501648
1717001412699716400,4.29671630859375,-0.3801751136779785,-0.8669290542602539,1.7124714851379395
1717001412709382700,4.306382568359375,-0.47190237045288086,-0.9594802856445312,1.672124981880188
1717001412719049000,4.316049072265625,-0.5698316097259521,-0.941650390625,1.5908690690994263
1717001412728715300,4.32571533203125,-0.7492752075195312,-0.7189607620239258,1.5726968050003052
1717001412738381600,4.335381591796875,-0.9141519069671631,-0.41805362701416016,1.6179391145706177
1717001412748048000,4.3450478515625,-1.0897061824798584,-0.11679363250732422,1.4091873168945312
1717001412757714200,4.354714111328125,-1.1407217979431152,0.09132575988769531,1.1341272592544556
1717001412767380500,4.36438037109375,-1.106903314590454,0.26158809661865234,0.9200518131256104
1717001412777046800,4.374046875,-1.1178085803985596,0.2567167282104492,0.7709226608276367
1717001412786713000,4.383713134765625,-1.174863576889038,0.08985614776611328,0.6220995187759399
1717001412796379400,4.39337939453125,-1.231428623199463,-0.1307048797607422,0.2699090838432312
1717001412806045700,4.403045654296875,-1.1150250434875488,-0.26959705352783203,-0.16834476590156555
1717001412815712000,4.4127119140625,-0.865070104598999,-0.24882125854492188,-0.501489520072937
1717001412825378300,4.42237841796875,-0.6368875503540039,-0.13287734985351562,-0.7139809131622314
1717001412835044600,4.432044677734375,-0.47817301750183105,-0.013523101806640625,-0.8648446798324585
1717001412844711200,4.441711181640625,-0.4038393497467041,0.07024288177490234,-1.1035099029541016
1717001412854377500,4.45137744140625,-0.29792094230651855,0.05722236633300781,-1.3980594873428345
1717001412864043800,4.461043701171875,-0.13477742671966553,-0.004004478454589844,-1.6474369764328003
1717001412873710000,4.4707099609375,0.11519277095794678,-0.13266468048095703,-1.7726318836212158
1717001412883376400,4.48037646484375,0.45673465728759766,-0.30063533782958984,-1.8056156635284424
1717001412893042700,4.490042724609375,0.8342971801757812,-0.43483638763427734,-1.7617138624191284
1717001412902709000,4.499708984375,1.1710169315338135,-0.4910135269165039,-1.6651849746704102
1717001412912375300,4.509375244140625,1.3930331468582153,-0.4747037887573242,-1.5089248418807983
1717001412922041600,4.51904150390625,1.4172683954238892,-0.4338722229003906,-1.2862112522125244
1717001412931708000,4.5287080078125,1.221667766571045,-0.39220714569091797,-1.014155626296997
1717001412941374200,4.538374267578125,0.9415717124938965,-0.3542604446411133,-0.7168671488761902
1717001412951040500,4.54804052734375,0.6570987105369568,-0.33679962158203125,-0.44915181398391724
1717001412960706800,4.557706787109375,0.4249430000782013,-0.3304605484008789,-0.24255040287971497
1717001412970373000,4.567373046875,0.27353209257125854,-0.2995796203613281,-0.1369188129901886
1717001412980039700,4.577039794921875,0.213078111410141,-0.22259044647216797,-0.1350405216217041
1717001412989706000,4.5867060546875,0.23257994651794434,-0.1135549545288086,-0.21563205122947693
1717001412999372300,4.596372314453125,0.2897363305091858,-0.02701854705810547,-0.32534632086753845
1717001413009038600,4.60603857421875,0.3326318860054016,0.015906333923339844,-0.40921226143836975
1717001413018705000,4.615704833984375,0.34406861662864685,-0.00371551513671875,-0.40154963731765747
1717001413028371200,4.62537109375,0.37608659267425537,-0.090545654296875,-0.2875918745994568
1717001413038037500,4.63503759765625,0.44711384177207947,-0.22527790069580078,-0.11936402320861816
1717001413047703800,4.644703857421875,0.5265046954154968,-0.3600187301635742,0.048830389976501465
1717001413057370000,4.6543701171875,0.532494843006134,-0.4232215881347656,0.2200705111026764
1717001413067036400,4.664036376953125,0.4415249526500702,-0.41284847259521484,0.39336958527565
1717001413076702700,4.67370263671875,0.22711367905139923,-0.37693309783935547,0.5641267895698547
1717001413086369000,4.683369140625,-0.062317855656147,-0.3250560760498047,0.7008473873138428
1717001413096035300,4.693035400390625,-0.3262956142425537,-0.31202030181884766,0.809701144695282
1717001413105701600,4.70270166015625,-0.513217568397522,-0.3160438537597656,0.8590379953384399
1717001413115368000,4.712367919921875,-0.6045013666152954,-0.32273197174072266,0.8502824306488037
1717001413125034200,4.7220341796875,-0.6324478387832642,-0.29632091522216797,0.8022589683532715
1717001413134700500,4.731700439453125,-0.6129435300827026,-0.22742652893066406,0.7378859519958496
1717001413144367000,4.7413671875,-0.5614995956420898,-0.14244651794433594,0.6667006611824036
1717001413154033400,4.751033447265625,-0.5050567388534546,-0.046154022216796875,0.606633186340332
1717001413163699700,4.76069970703125,-0.47027119994163513,0.01132965087890625,0.551451563835144
1717001413173366000,4.770365966796875,-0.4918053448200226,0.044335365295410156,0.507832407951355
1717001413183032300,4.7800322265625,-0.5856211185455322,0.04791736602783203,0.45716339349746704
1717001413192698600,4.78969873046875,-0.7740655541419983,0.050583839416503906,0.3977680206298828
1717001413202365000,4.799364990234375,-1.0465152263641357,0.0690155029296875,0.32062390446662903
1717001413212031200,4.80903125,-1.359933853149414,0.09615230560302734,0.23848596215248108
1717001413221697500,4.818697509765625,-1.6612129211425781,0.12030887603759766,0.14070764183998108
1717001413231363800,4.82836376953125,-1.9017536640167236,0.13233566284179688,0.04854342341423035
1717001413241030100,4.838030029296875,-2.049464702606201,0.1348743438720703,-0.050616294145584106
1717001413250696400,4.847696533203125,-2.0802085399627686,0.07798194885253906,-0.13689550757408142
1717001413260362800,4.85736279296875,-2.033853769302368,0.03336143493652344,-0.21004599332809448
1717001413270029000,4.867029052734375,-1.9355140924453735,0.0052947998046875,-0.25802525877952576
1717001413279695400,4.8766953125,-1.8091561794281006,0.005345344543457031,-0.286365270614624
1717001413289362000,4.88636181640625,-1.6716244220733643,0.04540061950683594,-0.30825456976890564
1717001413299028200,4.8960283203125,-1.5433307886123657,0.13269996643066406,-0.34562763571739197
1717001413308694500,4.905694580078125,-1.426211953163147,0.2528247833251953,-0.3954407572746277
1717001413318360800,4.91536083984375,-1.322127342224121,0.3789863586425781,-0.4493357539176941
1717001413328027100,4.925027099609375,-1.2752447128295898,0.5121984481811523,-0.502656102180481
1717001413337693400,4.934693359375,-1.2918639183044434,0.6245565414428711,-0.5276959538459778
1717001413347359700,4.94435986328125,-1.3594098091125488,0.6556472778320312,-0.4901178479194641
1717001413357026000,4.954026123046875,-1.4541993141174316,0.5799169540405273,-0.38926899433135986
1717001413366692400,4.9636923828125,-1.546421766281128,0.3873023986816406,-0.22259676456451416
1717001413376358700,4.973358642578125,-1.6276617050170898,0.11374664306640625,0.017998099327087402
1717001413386025000,4.98302490234375,-1.6750096082687378,-0.24895858764648438,0.331470787525177
1717001413395691300,4.992691162109375,-1.6610143184661865,-0.6401252746582031,0.6588418483734131
1717001413405357600,5.002357666015625,-1.6076316833496094,-1.059065818786621,0.9826902747154236
1717001413415023900,5.01202392578125,-1.5665823221206665,-1.4910144805908203,1.299485445022583
1717001413424690200,5.021690185546875,-1.602272629737854,-1.9276790618896484,1.6244208812713623
1717001413434356500,5.0313564453125,-1.7681903839111328,-2.3352251052856445,1.9439157247543335
1717001413444022800,5.041022705078125,-2.050687551498413,-2.6592178344726562,2.2290351390838623
1717001413453689000,5.050689208984375,-2.418635606765747,-2.823977470397949,2.4426217079162598
1717001413463355400,5.06035546875,-2.918027639389038,-2.842257499694824,2.5598483085632324
1717001413473022000,5.07002197265625,-3.429481267929077,-2.8948097229003906,2.6150054931640625
1717001413482688300,5.079688232421875,-3.707510471343994,-3.0722217559814453,2.642747640609741
1717001413492354600,5.0893544921875,-3.625333547592163,-3.299713134765625,2.664360284805298
1717001413502020900,5.099020751953125,-3.344187021255493,-3.5145177841186523,2.6962826251983643
1717001413511687200,5.108687255859375,-3.119778633117676,-3.6086244583129883,2.7445836067199707
1717001413521353500,5.118353515625,-3.134964942932129,-3.482672691345215,2.8270440101623535
1717001413531019800,5.128019775390625,-3.5244626998901367,-3.1731719970703125,2.9560463428497314
1717001413540686000,5.13768603515625,-4.244653701782227,-2.7565841674804688,3.1521008014678955
1717001413550352400,5.147352294921875,-4.835947036743164,-2.2937440872192383,3.319007158279419
1717001413560018700,5.157018798828125,-4.90574312210083,-1.8519878387451172,3.309610605239868
1717001413569685000,5.16668505859375,-4.427375793457031,-1.49615478515625,3.071415424346924
1717001413579351300,5.176351318359375,-3.8850972652435303,-1.3585481643676758,2.7426650524139404
1717001413589017600,5.186017578125,-3.5207700729370117,-1.5592527389526367,2.309112548828125
1717001413598684000,5.195683837890625,-3.0413925647735596,-2.024667739868164,1.625503420829773
1717001413608350200,5.20535009765625,-2.2167670726776123,-2.6671600341796875,0.8314396142959595
1717001413618016500,5.2150166015625,-1.2070719003677368,-3.4132509231567383,0.03818470239639282
1717001413627683000,5.22468310546875,-0.12807446718215942,-4.1351776123046875,-0.6898553371429443
1717001413637349400,5.234349365234375,0.8943093419075012,-4.72163200378418,-1.316602349281311
1717001413647015700,5.244015625,1.7998669147491455,-5.125176429748535,-1.8227343559265137
1717001413656682000,5.253681884765625,2.545659303665161,-5.280119895935059,-2.2190775871276855
1717001413666348300,5.263348388671875,3.0768074989318848,-5.209111213684082,-2.530707836151123
1717001413676014600,5.2730146484375,3.2111620903015137,-4.975271224975586,-2.788322687149048
1717001413685681000,5.282680908203125,2.3155877590179443,-4.767620086669922,-2.789773464202881
1717001413695347200,5.29234716796875,0.8307806849479675,-4.56757926940918,-2.7603139877319336
1717001413705013500,5.302013427734375,-0.004646778106689453,-4.313231468200684,-3.0043087005615234
1717001413714679800,5.3116796875,-0.12270522117614746,-4.00193977355957,-3.4638662338256836
1717001413724346000,5.32134619140625,0.2460169792175293,-3.6221885681152344,-3.954457998275757
1717001413734012400,5.331012451171875,0.9065251350402832,-3.17926025390625,-4.353099822998047
1717001413743678700,5.3406787109375,1.6818275451660156,-2.676645278930664,-4.620484828948975
1717001413753345000,5.350344970703125,2.383650302886963,-2.110323905944824,-4.742035865783691
1717001413763011300,5.36001123046875,2.889970064163208,-1.4723787307739258,-4.741143226623535
1717001413772677600,5.369677734375,3.232146739959717,-0.7658786773681641,-4.673206329345703
1717001413782344000,5.379343994140625,3.5163021087646484,0.005501747131347656,-4.5917158126831055
1717001413792010200,5.38901025390625,3.7380876541137695,0.7802257537841797,-4.511994361877441
1717001413801676500,5.398676513671875,3.9530653953552246,1.5023818016052246,-4.40388822555542
1717001413811342800,5.4083427734375,4.163948059082031,2.1594676971435547,-4.263189792633057
1717001413821009400,5.418009521484375,4.315398216247559,2.7531538009643555,-4.0829877853393555
1717001413830675700,5.42767578125,4.416138172149658,3.2707014083862305,-3.8627848625183105
1717001413840342000,5.437342041015625,4.4548258781433105,3.723118305206299,-3.649376392364502
1717001413850008300,5.44700830078125,4.408153533935547,4.123778820037842,-3.4987082481384277
1717001413859674600,5.456674560546875,4.3120317459106445,4.481382846832275,-3.448930025100708
1717001413869341000,5.4663408203125,4.185018539428711,4.835925102233887,-3.5104379653930664
1717001413879007200,5.47600732421875,4.110811710357666,5.20571756362915,-3.6206111907958984
1717001413888673500,5.485673583984375,4.174784183502197,5.597472190856934,-3.673821449279785
1717001413898339800,5.49533984375,4.422484874725342,6.005736351013184,-3.592031955718994
1717001413908006100,5.505006103515625,4.668702125549316,6.398061752319336,-3.368398904800415
1717001413917672400,5.51467236328125,4.694901466369629,6.653722763061523,-2.9553794860839844
1717001413927338800,5.5243388671875,4.392158508300781,6.607115268707275,-2.3460121154785156
1717001413937005000,5.534005126953125,3.6022682189941406,6.242762565612793,-1.670149803161621
1717001413946671400,5.54367138671875,1.718355417251587,5.445011138916016,-1.0116760730743408
1717001413956337700,5.553337646484375,-2.706061840057373,3.559333324432373,-0.015768885612487793
1717001413966004000,5.56300390625,-7.511094093322754,0.07157039642333984,1.048401951789856
1717001413975670300,5.572670166015625,-7.305566787719727,-3.334339141845703,1.6428782939910889
1717001413985336600,5.582336669921875,-5.287047386169434,-5.92148494720459,2.1347737312316895
1717001413995003000,5.5920029296875,-4.102236747741699,-7.037199974060059,2.173713207244873
1717001414004669400,5.60166943359375,-3.775421142578125,-6.909663200378418,2.046853542327881
1717001414014335500,5.61133544921875,-4.108188152313232,-5.884357452392578,1.7748990058898926
1717001414024001800,5.621001708984375,-4.6052703857421875,-4.319890975952148,1.3433506488800049
1717001414033668400,5.63066845703125,-4.625199317932129,-2.5930328369140625,0.8692984580993652
1717001414043334700,5.640334716796875,-4.06527042388916,-1.002284049987793,0.539344072341919
1717001414053001000,5.6500009765625,-2.7995004653930664,0.13565635681152344,0.2826046943664551
1717001414062667300,5.659667236328125,-1.0939176082611084,0.5753774642944336,-0.05520772933959961
1717001414072333600,5.66933349609375,0.5402119159698486,0.33441829681396484,-0.5143675804138184
1717001414082000000,5.678999755859375,1.901154637336731,-0.4668130874633789,-0.922667384147644
1717001414091666200,5.688666259765625,2.468104600906372,-1.5611343383789062,-1.0093797445297241
1717001414101332500,5.69833251953125,1.789041519165039,-2.705747604370117,-0.5590711832046509
1717001414110998800,5.707998779296875,0.09206438064575195,-3.7221641540527344,0.27927613258361816
1717001414120665000,5.7176650390625,-0.4652392864227295,-4.063275337219238,0.7237899303436279
1717001414130331400,5.727331298828125,0.15349435806274414,-3.5678110122680664,0.4155158996582031
1717001414139997700,5.736997802734375,1.0093332529067993,-2.6356496810913086,-0.2770627737045288
1717001414149664000,5.7466640625,1.4503545761108398,-1.5209665298461914,-1.075903058052063
1717001414159330300,5.756330322265625,1.2389156818389893,-0.32683467864990234,-1.8430989980697632
1717001414168996600,5.76599658203125,0.5639591217041016,0.8160610198974609,-2.5580904483795166
1717001414178663000,5.775662841796875,0.15459942817687988,1.623786449432373,-3.0703933238983154
1717001414188329200,5.7853291015625,0.335176944732666,1.9602670669555664,-3.3601856231689453
1717001414197995500,5.79499560546875,0.970234751701355,1.7290825843811035,-3.4326658248901367
1717001414207661800,5.804661865234375,1.7216615676879883,1.1170320510864258,-3.3352842330932617
1717001414217328000,5.814328125,2.3866055011749268,0.404754638671875,-3.168120861053467
1717001414226994700,5.82399462890625,2.835848331451416,-0.29955482482910156,-2.982651710510254
1717001414236661000,5.833660888671875,2.9976701736450195,-0.8440723419189453,-2.7111377716064453
1717001414246327300,5.843327392578125,2.356628894805908,-1.0818023681640625,-2.2231783866882324
1717001414255993600,5.85299365234375,0.9239969849586487,-1.0526065826416016,-1.541928768157959
1717001414265660000,5.862659912109375,-0.20203113555908203,-0.9253244400024414,-0.9157100319862366
1717001414275326200,5.872326171875,-0.5363469123840332,-0.8251104354858398,-0.4177224338054657
1717001414284992500,5.881992431640625,-0.21141517162322998,-0.8088102340698242,-0.035849690437316895
1717001414294658800,5.891658935546875,0.40436601638793945,-0.8917245864868164,0.22879880666732788
1717001414304325000,5.9013251953125,1.0279288291931152,-0.9798135757446289,0.41029107570648193
1717001414313991400,5.910991455078125,1.4451028108596802,-0.9606084823608398,0.5134468674659729
1717001414323657700,5.92065771484375,1.5779788494110107,-0.7769079208374023,0.5436661243438721
1717001414333324000,5.930323974609375,1.468856692314148,-0.41805553436279297,0.498787522315979
1717001414342990300,5.939990234375,1.2793054580688477,-0.01933765411376953,0.4092704653739929
1717001414352656600,5.94965673828125,1.0540528297424316,0.32180213928222656,0.31653955578804016
1717001414362323000,5.959322998046875,0.7386684417724609,0.6127643585205078,0.21250230073928833
1717001414371989200,5.9689892578125,0.3556492328643799,0.8270454406738281,0.07372073829174042
1717001414381655600,5.978655517578125,-0.03775984048843384,0.9737558364868164,-0.10706445574760437
1717001414391321900,5.98832177734375,-0.3919646441936493,1.062368392944336,-0.2909485697746277
1717001414400988200,5.99798828125,-0.6869407296180725,1.134033203125,-0.4294458031654358
1717001414410654500,6.007654541015625,-0.9290059804916382,1.2252235412597656,-0.5455120205879211
1717001414420320800,6.01732080078125,-1.0496045351028442,1.3101024627685547,-0.601654052734375
1717001414429987000,6.026987060546875,-1.024186372756958,1.348496437072754,-0.5752319097518921
1717001414439653400,6.0366533203125,-0.8855723142623901,1.3242034912109375,-0.4650309085845947
1717001414449319700,6.046319580078125,-0.708687424659729,1.2468223571777344,-0.28995367884635925
1717001414458986000,6.055986083984375,-0.5617966651916504,1.1418218612670898,-0.06718507409095764
1717001414468652500,6.065652587890625,-0.5212512016296387,1.0406856536865234,0.20080122351646423
1717001414478318800,6.07531884765625,-0.6368255615234375,0.9548206329345703,0.5278927087783813
1717001414487985200,6.084985107421875,-0.8880593180656433,0.9080772399902344,0.8987164497375488
1717001414497651500,6.0946513671875,-1.2221083641052246,0.9046573638916016,1.2567956447601318
1717001414507317800,6.10431787109375,-1.892400860786438,0.8715496063232422,1.5799357891082764
1717001414516984000,6.113984130859375,-3.303506374359131,0.5961894989013672,1.9935665130615234
1717001414526650400,6.123650390625,-4.352067947387695,0.05497550964355469,2.5130085945129395
1717001414536316700,6.133316650390625,-4.277493953704834,-0.46259212493896484,2.870701313018799
1717001414545983000,6.14298291015625,-3.632953643798828,-0.7963838577270508,3.018303871154785
1717001414555649300,6.152649169921875,-2.8502745628356934,-0.9787406921386719,3.0450687408447266
1717001414565315600,6.162315673828125,-2.1670339107513428,-1.1449613571166992,3.0820446014404297
1717001414574982000,6.17198193359375,-1.6540701389312744,-1.3919677734375,3.241741180419922
1717001414584648200,6.181648193359375,-1.3550350666046143,-1.7309036254882812,3.499490737915039
1717001414594314500,6.191314453125,-1.2614015340805054,-2.1015119552612305,3.806034803390503
1717001414603980800,6.200980712890625,-1.2748886346817017,-2.4579877853393555,4.100679397583008
1717001414613647000,6.210647216796875,-1.354874849319458,-2.7017087936401367,4.294241428375244
1717001414623313400,6.2203134765625,-1.6945559978485107,-2.7692031860351562,4.291682720184326
1717001414632979700,6.229979736328125,-2.9889776706695557,-2.7363901138305664,4.083245754241943
1717001414642646000,6.23964599609375,-4.206038951873779,-2.702012062072754,3.8037238121032715
1717001414652312300,6.249312255859375,-4.591409683227539,-2.710434913635254,3.6687798500061035
1717001414661978600,6.258978515625,-4.309713840484619,-2.673222541809082,3.696475028991699
1717001414671645000,6.26864501953125,-3.6568777561187744,-2.480647087097168,3.7787718772888184
1717001414681311200,6.278311279296875,-3.109731674194336,-2.215200424194336,3.9325485229492188
1717001414690977500,6.2879775390625,-3.077632427215576,-2.016848564147949,4.157067775726318
1717001414700643800,6.297643798828125,-3.0458030700683594,-1.9183530807495117,4.217332363128662
1717001414710310100,6.30731005859375,-2.6475768089294434,-1.9243087768554688,3.93326997756958
1717001414719976400,6.3169765625,-2.223496913909912,-2.2132997512817383,3.385134696960449
1717001414729642800,6.326642822265625,-1.9682260751724243,-2.7571773529052734,2.544057846069336
1717001414739309300,6.336309326171875,-1.5100570917129517,-3.4455766677856445,1.5301196575164795
1717001414748975600,6.3459755859375,-0.6433666348457336,-4.172849655151367,0.509406328201294
1717001414758642000,6.355641845703125,0.4098540246486664,-4.857224464416504,-0.43360650539398193
1717001414768308200,6.36530810546875,1.4326281547546387,-5.357484817504883,-1.2531019449234009
1717001414777974500,6.374974609375,2.166031837463379,-5.646058082580566,-1.910736083984375
1717001414787640800,6.384640869140625,2.3826396465301514,-5.783027648925781,-2.4219565391540527
1717001414797307100,6.39430712890625,1.8192107677459717,-5.87872314453125,-2.7435922622680664
1717001414806973400,6.403973388671875,0.6781763434410095,-5.932771682739258,-2.9036269187927246
1717001414816639700,6.4136396484375,-0.23103630542755127,-5.851019859313965,-3.0575647354125977
1717001414826306000,6.42330615234375,-0.482279896736145,-5.624056816101074,-3.272092819213867
1717001414835972400,6.432972412109375,-0.1349860429763794,-5.248377799987793,-3.5150692462921143
1717001414845638700,6.442638671875,0.5944465398788452,-4.752009391784668,-3.710721015930176
1717001414855305000,6.452304931640625,1.4243842363357544,-4.156734466552734,-3.873103618621826
1717001414864971300,6.46197119140625,2.166438579559326,-3.492764472961426,-3.9833498001098633
1717001414874637600,6.471637451171875,2.742286205291748,-2.7509164810180664,-4.031541347503662
1717001414884304000,6.481303955078125,3.0629849433898926,-1.9255924224853516,-4.03135871887207
1717001414893970200,6.49097021484375,3.1862263679504395,-1.0665788650512695,-3.9771175384521484
1717001414903636500,6.500636474609375,3.2389161586761475,-0.20916175842285156,-3.8548145294189453
1717001414913302800,6.510302734375,3.2911343574523926,0.6072988510131836,-3.699578285217285
1717001414922969000,6.519968994140625,3.3629097938537598,1.3822593688964844,-3.5298004150390625
1717001414932635400,6.529635498046875,3.4727323055267334,2.0873851776123047,-3.3763928413391113
1717001414942301700,6.5393017578125,3.61942720413208,2.716444969177246,-3.2255120277404785
1717001414951968000,6.548968017578125,3.73641037940979,3.2662386894226074,-3.114469051361084
1717001414961634300,6.55863427734375,3.826859712600708,3.7491917610168457,-3.0760746002197266
1717001414971300600,6.568300537109375,3.9221107959747314,4.169315338134766,-3.1189916133880615
1717001414980967000,6.577966796875,4.022995948791504,4.547061920166016,-3.223994731903076
1717001414990633200,6.58763330078125,4.137228012084961,4.904146194458008,-3.365825891494751
1717001415000299500,6.597299560546875,4.26987361907959,5.253528594970703,-3.4852705001831055
1717001415009965800,6.6069658203125,4.464961528778076,5.611563682556152,-3.5378575325012207
1717001415019632000,6.616632080078125,4.781496047973633,5.959908962249756,-3.4915733337402344
1717001415029298400,6.62629833984375,5.046262741088867,6.2633585929870605,-3.3240280151367188
1717001415038964700,6.63596484375,5.075064659118652,6.501741409301758,-3.0801796913146973
1717001415048631000,6.645631103515625,4.881319522857666,6.633692741394043,-2.7671937942504883
1717001415058297600,6.655297607421875,4.396808624267578,6.529740333557129,-2.4136786460876465
1717001415067964000,6.6649638671875,2.9728879928588867,5.937259674072266,-2.0089187622070312
1717001415077630200,6.674630126953125,-0.5156736373901367,4.443477153778076,-1.3143278360366821
1717001415087296500,6.684296630859375,-7.358889579772949,0.9814367294311523,0.09926438331604004
1717001415096962800,6.693962890625,-8.734908103942871,-2.8797483444213867,1.2956801652908325
1717001415106629000,6.703629150390625,-6.411172866821289,-6.059101104736328,2.523183584213257
1717001415116295400,6.71329541015625,-4.626212120056152,-7.821924209594727,3.1430504322052
1717001415125961700,6.722961669921875,-3.9653244018554688,-8.239607810974121,3.0483086109161377
1717001415135628000,6.7326279296875,-4.058241844177246,-7.590752601623535,2.5557749271392822
1717001415145294300,6.74229443359375,-4.360624313354492,-6.22563362121582,1.8213512897491455
1717001415154960600,6.751960693359375,-4.294690132141113,-4.485130310058594,0.9996256828308105
1717001415164627000,6.761626953125,-3.5757970809936523,-2.6389551162719727,0.29686856269836426
1717001415174293200,6.771293212890625,-2.646454095840454,-0.8052988052368164,-0.1611478328704834
1717001415183959600,6.78095947265625,-1.5727851390838623,0.9010601043701172,-0.29312992095947266
1717001415193625900,6.7906259765625,0.10223937034606934,2.258619785308838,-0.39400434494018555
1717001415203292200,6.800292236328125,1.8396867513656616,2.9794516563415527,-0.7709097862243652
1717001415212958500,6.80995849609375,3.041543483734131,2.9116883277893066,-1.2470591068267822
1717001415222624800,6.819624755859375,3.633432388305664,2.181163787841797,-1.5619629621505737
1717001415232291000,6.829291015625,3.387036085128784,0.890437126159668,-1.6371431350708008
1717001415241957400,6.838957275390625,1.6346964836120605,-1.099416732788086,-1.342405080795288
1717001415251623700,6.848623779296875,-0.9161598682403564,-3.584615707397461,-0.7104294300079346
1717001415261290000,6.8582900390625,-1.1225595474243164,-5.263134956359863,-0.5894989967346191
1717001415270956300,6.867956298828125,0.08065676689147949,-5.793566703796387,-1.0114065408706665
1717001415280622600,6.87762255859375,1.179897427558899,-5.220141410827637,-1.7447103261947632
1717001415290289000,6.887288818359375,0.8063491582870483,-3.7363739013671875,-2.6431758403778076
1717001415299955200,6.896955078125,-0.3414497375488281,-1.8715391159057617,-3.500519037246704
1717001415309621500,6.90662158203125,-0.33315205574035645,-0.31208229064941406,-3.960427761077881
1717001415319287800,6.916287841796875,0.8153469562530518,0.42562007904052734,-3.945028781890869
1717001415328954000,6.9259541015625,2.103848695755005,0.4253063201904297,-3.673847198486328
1717001415338620400,6.935620361328125,3.1222376823425293,0.11441898345947266,-3.3719425201416016
1717001415348286700,6.94528662109375,3.7691564559936523,-0.3150157928466797,-3.071302890777588
1717001415357953000,6.954953125,4.120173454284668,-0.7605400085449219,-2.752791404724121
1717001415367619300,6.964619384765625,4.252620697021484,-1.1715974807739258,-2.3353497982025146
1717001415377285600,6.97428564453125,3.417421817779541,-1.4642133712768555,-1.6693265438079834
1717001415386952000,6.983951904296875,1.8917152881622314,-1.5282506942749023,-0.7842247486114502
1717001415396618200,6.9936181640625,1.08394455909729,-1.4341545104980469,-0.04167020320892334
1717001415406284500,7.003284423828125,0.9086750149726868,-1.3008546829223633,0.5003529787063599
1717001415415950800,7.012950927734375,0.9553637504577637,-1.155050277709961,0.8775355219841003
1717001415425617200,7.0226171875,1.0365548133850098,-0.9987878799438477,1.1166720390319824
1717001415435283500,7.032283447265625,1.076536774635315,-0.776092529296875,1.2003880739212036
1717001415444949800,7.04194970703125,1.0144004821777344,-0.5182352066040039,1.1307482719421387
1717001415454616000,7.051615966796875,0.8666852712631226,-0.24402523040771484,0.9322500824928284
1717001415464282400,7.061282470703125,0.6514843106269836,0.06754684448242188,0.6493452787399292
1717001415473948700,7.07094873046875,0.4190177917480469,0.3886451721191406,0.3262506127357483
1717001415483615000,7.080614990234375,0.22021615505218506,0.7205419540405273,0.03273355960845947
1717001415493281300,7.09028125,0.0464758425951004,1.035491943359375,-0.21844705939292908
1717001415502947600,7.099947509765625,-0.13309012353420258,1.2860965728759766,-0.40837520360946655
1717001415512614000,7.10961376953125,-0.31595537066459656,1.4770994186401367,-0.5207696557044983
1717001415522280200,7.1192802734375,-0.49543333053588867,1.6034622192382812,-0.5931559205055237
1717001415531946800,7.12894677734375,-0.6273975968360901,1.67462158203125,-0.6256229281425476
1717001415541613000,7.138613037109375,-0.695424497127533,1.7122249603271484,-0.591801106929779
1717001415551279400,7.148279296875,-0.6874645948410034,1.7403841018676758,-0.5108033418655396
1717001415560945700,7.157945556640625,-0.6293115019798279,1.7687807083129883,-0.404928058385849
1717001415570612000,7.167612060546875,-0.5136298537254333,1.768789291381836,-0.2620216906070709
1717001415580278300,7.1772783203125,-0.38751041889190674,1.7570571899414062,-0.08999902009963989
1717001415589944600,7.186944580078125,-0.2886226177215576,1.7283778190612793,0.10994812846183777
1717001415599611000,7.19661083984375,-0.26385319232940674,1.686690330505371,0.33937063813209534
1717001415609277200,7.206277099609375,-0.36229896545410156,1.5900049209594727,0.6233652234077454
1717001415618943500,7.215943603515625,-0.6251060366630554,1.419754981994629,0.9447373747825623
1717001415628609800,7.22560986328125,-1.0471739768981934,1.2099790573120117,1.2582675218582153
1717001415638276000,7.235276123046875,-2.113691806793213,0.8965663909912109,1.5227115154266357
1717001415647942400,7.2449423828125,-4.021594524383545,0.3641681671142578,1.9073727130889893
1717001415657608700,7.254608642578125,-4.9363603591918945,-0.2400045394897461,2.41923189163208
1717001415667275000,7.26427490234375,-4.541414260864258,-0.6929845809936523,2.742128610610962
1717001415676941300,7.27394140625,-3.6286661624908447,-0.938380241394043,2.8992624282836914
1717001415686607600,7.283607666015625,-2.6354167461395264,-1.068014144897461,2.998375415802002
1717001415696274000,7.29327392578125,-1.757699966430664,-1.1721506118774414,3.14573335647583
1717001415705940200,7.302940185546875,-1.047921061515808,-1.2757987976074219,3.3397951126098633
1717001415715606500,7.3126064453125,-0.5947988033294678,-1.4331598281860352,3.5994153022766113
1717001415725272800,7.32227294921875,-0.44582563638687134,-1.6677169799804688,3.9424867630004883
1717001415734939100,7.331939208984375,-0.5001184940338135,-1.9298896789550781,4.304542541503906
1717001415744605400,7.34160546875,-0.5282832384109497,-2.1377830505371094,4.58913516998291
1717001415754271700,7.351271728515625,-0.47566890716552734,-2.279210090637207,4.757465839385986
1717001415763938000,7.36093798828125,-0.4246358871459961,-2.4260826110839844,4.85955286026001
1717001415773604400,7.370604248046875,-0.48801112174987793,-2.6161346435546875,4.944981575012207
1717001415783270700,7.380270751953125,-1.089368224143982,-2.8208131790161133,5.065605163574219
1717001415792937000,7.38993701171875,-2.059342384338379,-2.9498510360717773,5.231605529785156
1717001415802603300,7.399603271484375,-2.446279525756836,-2.842524528503418,5.3264007568359375
1717001415812269600,7.40926953125,-2.441903591156006,-2.5377120971679688,5.291388511657715
1717001415821935900,7.418935791015625,-2.412336587905884,-2.159787178039551,5.190248966217041
1717001415831602200,7.428602294921875,-2.693385124206543,-1.8055305480957031,5.074220657348633
1717001415841268500,7.4382685546875,-3.0372185707092285,-1.5581846237182617,4.831831455230713
1717001415850934800,7.447934814453125,-2.890761613845825,-1.4939851760864258,4.238931179046631
1717001415860601000,7.45760107421875,-2.5203323364257812,-1.698288917541504,3.3952383995056152
1717001415870267400,7.467267333984375,-2.17501163482666,-2.1973323822021484,2.3876607418060303
1717001415879933700,7.47693359375,-1.7310445308685303,-2.906094551086426,1.332874059677124
1717001415889600000,7.48660009765625,-0.8135125041007996,-3.7162914276123047,0.3768587112426758
1717001415899266300,7.496266357421875,0.4966811537742615,-4.494043350219727,-0.4383432865142822
1717001415908932600,7.5059326171875,1.656235694885254,-5.13494873046875,-1.1053389310836792
1717001415918599000,7.515598876953125,2.318970203399658,-5.490355491638184,-1.6587514877319336
1717001415928265200,7.52526513671875,2.2247276306152344,-5.618165969848633,-2.1704869270324707
1717001415937931500,7.534931640625,1.2400200366973877,-5.669390678405762,-2.515079975128174
1717001415947597800,7.544597900390625,0.225597083568573,-5.644824981689453,-2.719921112060547
1717001415957264100,7.55426416015625,-0.1945655345916748,-5.484790802001953,-2.912296772003174
1717001415966930400,7.563930419921875,-0.02221524715423584,-5.18740177154541,-3.120166301727295
1717001415976596700,7.5735966796875,0.5202810764312744,-4.808152198791504,-3.2929396629333496
1717001415986263000,7.583262939453125,1.224489450454712,-4.33818244934082,-3.430863857269287
1717001415995929300,7.592929443359375,1.9592869281768799,-3.775705337524414,-3.5384879112243652
1717001416005595600,7.602595703125,2.616367816925049,-3.141033172607422,-3.6130800247192383
1717001416015262000,7.612261962890625,3.1307411193847656,-2.424345016479492,-3.6510980129241943
1717001416024928300,7.62192822265625,3.473524570465088,-1.6361579895019531,-3.6411516666412354
1717001416034594600,7.631594482421875,3.6273789405822754,-0.8313789367675781,-3.548351764678955
1717001416044260900,7.6412607421875,3.6143298149108887,-0.04876708984375,-3.3762831687927246
1717001416053927200,7.65092724609375,3.505873680114746,0.6954879760742188,-3.2046873569488525
1717001416063593500,7.660593505859375,3.416177749633789,1.4061260223388672,-3.1122217178344727
1717001416073259800,7.670259765625,3.3927626609802246,2.0606822967529297,-3.1189699172973633
1717001416082926000,7.679926025390625,3.4010300636291504,2.656597137451172,-3.2036917209625244
1717001416092592400,7.68959228515625,3.4187326431274414,3.1748900413513184,-3.330685615539551
1717001416102258700,7.6992587890625,3.4539237022399902,3.6250696182250977,-3.4903454780578613
1717001416111925000,7.708925048828125,3.531341552734375,3.9974493980407715,-3.658752918243408
1717001416121591300,7.71859130859375,3.641160011291504,4.296690940856934,-3.836325168609619
1717001416131257600,7.728257568359375,3.790447235107422,4.548912525177002,-4.005965232849121
1717001416140924000,7.737923828125,3.951950788497925,4.803191661834717,-4.144185543060303
1717001416150590200,7.747590087890625,4.128018379211426,5.061908721923828,-4.206424236297607
1717001416160256500,7.757256591796875,4.375734806060791,5.3236260414123535,-4.1316728591918945
1717001416169922800,7.7669228515625,4.648160457611084,5.55914831161499,-3.9274818897247314
1717001416179589000,7.776589111328125,4.80446195602417,5.77718448638916,-3.674781322479248
1717001416189255400,7.78625537109375,4.783071517944336,5.926979064941406,-3.4013829231262207
1717001416198921700,7.795921630859375,4.519527435302734,5.912132263183594,-3.099290370941162
1717001416208588000,7.805588134765625,3.847134828567505,5.587421417236328,-2.6823058128356934
1717001416218254300,7.81525439453125,2.386963367462158,4.784377098083496,-2.124241352081299
1717001416227920600,7.824920654296875,-2.5521180629730225,2.907071590423584,-1.0799269676208496
1717001416237587000,7.8345869140625,-8.316694259643555,-0.6385097503662109,0.469096302986145
1717001416247253200,7.844253173828125,-8.529558181762695,-4.081263542175293,1.4068683385849
1717001416256919600,7.85391943359375,-6.450073719024658,-6.427290916442871,2.3287599086761475
1717001416266585900,7.8635859375,-4.693416595458984,-7.504019737243652,3.0161995887756348
1717001416276252200,7.873252197265625,-3.811643362045288,-7.160687446594238,3.2056779861450195
1717001416285918500,7.88291845703125,-3.54764986038208,-5.86744499206543,3.080759048461914
1717001416295584800,7.892584716796875,-3.4447622299194336,-4.118914604187012,2.8348214626312256
1717001416305251000,7.9022509765625,-3.048074245452881,-2.1962080001831055,2.624359369277954
1717001416314917400,7.91191748046875,-2.5356521606445312,-0.3515434265136719,2.4836297035217285
1717001416324583700,7.921583740234375,-1.1501657962799072,1.1084270477294922,2.2640609741210938
1717001416334250000,7.93125,1.2147525548934937,2.022162914276123,1.819120168685913
1717001416343916300,7.940916259765625,3.366663932800293,2.2875118255615234,1.2123234272003174
1717001416353582600,7.95058251953125,8.523728370666504,-0.4467964172363281,-2.211538791656494
1717001416363249000,7.960248779296875,3.8500213623046875,-4.487945556640625,-1.5557538270950317
1717001416372915200,7.969915283203125,-2.4273324012756348,-8.922319412231445,0.1656932830810547
1717001416382581500,7.97958154296875,-12.489267349243164,-13.579778671264648,1.4256854057312012
1717001416392247800,7.989247802734375,-4.735053539276123,-11.761940002441406,-1.9072109460830688
1717001416401914000,7.9989140625,2.1477606296539307,-7.621912956237793,-5.010719299316406
1717001416411580400,8.008580322265624,-2.1565728187561035,-2.3558502197265625,-7.959247589111328
1717001416421246700,8.018246826171875,-11.324838638305664,3.5827155113220215,-10.94063949584961
1717001416430913000,8.0279130859375,-4.957806587219238,6.634235382080078,-11.221598625183105
1717001416440579300,8.037579345703126,6.265992641448975,4.599463939666748,-8.26995849609375
1717001416450245600,8.04724560546875,9.780356407165527,1.2590761184692383,-5.953828811645508
1717001416459912000,8.056911865234374,8.037184715270996,-0.7850723266601562,-5.74638557434082
1717001416469578200,8.066578125,6.871419906616211,-1.9958124160766602,-5.930083274841309
1717001416479244500,8.07624462890625,6.5404462814331055,-3.141632080078125,-4.886209487915039
1717001416488910800,8.085910888671876,6.459361553192139,-3.6512136459350586,-3.557224750518799
1717001416498577200,8.0955771484375,5.969954967498779,-3.446934700012207,-2.381035566329956
1717001416508243500,8.105243408203124,5.348056793212891,-2.6294021606445312,-1.2950849533081055
1717001416517909800,8.11490966796875,3.320777416229248,-1.9289236068725586,-0.020814061164855957
1717001416527576000,8.124576171875,-8.941576957702637,-1.0274124145507812,3.2189583778381348
1717001416537242400,8.134242431640626,-4.329981803894043,-0.5406894683837891,3.6618094444274902
1717001416546908700,8.14390869140625,1.0573790073394775,-0.4573650360107422,3.0022923946380615
1717001416556575000,8.153574951171874,3.019202947616577,-0.2421283721923828,2.2858829498291016
1717001416566241300,8.1632412109375,2.3788857460021973,0.5187911987304688,2.151890277862549
1717001416575907600,8.172907470703125,0.6295767426490784,1.263840675354004,1.9733316898345947
1717001416585574000,8.182573974609374,-0.626627504825592,1.6279630661010742,1.2306427955627441
1717001416595240200,8.192240234375,-1.1509133577346802,1.7485017776489258,0.31439274549484253
1717001416604906500,8.201906494140625,-1.2840813398361206,1.9541668891906738,-0.4791875183582306
1717001416614572800,8.21157275390625,-1.2091245651245117,1.7921876907348633,-1.1056478023529053
1717001416624239000,8.221239013671875,-1.2133256196975708,1.3072690963745117,-1.4146084785461426
1717001416633905400,8.230905517578124,-1.3056384325027466,1.1836252212524414,-1.5668714046478271
1717001416643571700,8.24057177734375,-1.3831392526626587,1.1936349868774414,-1.529198169708252
1717001416653238000,8.250238037109375,-1.2927013635635376,1.3178434371948242,-1.2931101322174072
1717001416662904300,8.259904296875,-1.120483160018921,1.6062078475952148,-1.2195219993591309
1717001416672570600,8.269570556640625,-0.8952794671058655,1.791116714477539,-1.1989810466766357
1717001416682237000,8.27923681640625,-0.4711127281188965,1.7965965270996094,-1.1118183135986328
1717001416691903200,8.2889033203125,0.04422104358673096,1.6086053848266602,-0.9508587121963501
1717001416701569500,8.298569580078125,0.4521884322166443,1.2987995147705078,-0.5977213382720947
1717001416711235800,8.30823583984375,0.70766681432724,1.057784080505371,-0.22488661110401154
1717001416720902100,8.317902099609375,0.5597676038742065,0.9989709854125977,0.27471649646759033
1717001416730568400,8.327568359375,-0.04840588569641113,0.8933238983154297,0.8618702292442322
1717001416740234800,8.33723486328125,-0.8949171304702759,0.9320430755615234,1.4121590852737427
1717001416749901000,8.346901123046875,-1.5229507684707642,1.0921802520751953,1.938185691833496
1717001416759567400,8.3565673828125,-1.4725810289382935,1.0845184326171875,2.4128270149230957
1717001416769233700,8.366233642578125,-1.2892951965332031,0.837702751159668,2.821673631668091
1717001416778900000,8.37589990234375,-1.2345306873321533,0.4187965393066406,3.278714895248413
1717001416788566300,8.385566162109376,-1.5436973571777344,-0.24741363525390625,3.7850985527038574
1717001416798232600,8.395232666015625,-2.3757288455963135,-0.9127445220947266,4.3069634437561035
1717001416807899000,8.40489892578125,-2.5147716999053955,-1.434652328491211,4.665622711181641
1717001416817565000,8.41456494140625,-1.5569064617156982,-1.8693885803222656,4.849461555480957
1717001416827231500,8.4242314453125,-1.0984411239624023,-2.239988327026367,5.047479629516602
1717001416836897500,8.4338974609375,-1.0918402671813965,-2.4775943756103516,5.317076206207275
1717001416846563800,8.443563720703125,-1.0404424667358398,-2.3902359008789062,5.296525001525879
1717001416856230100,8.453230224609374,-0.8461670875549316,-2.0110950469970703,4.6909565925598145
1717001416865896400,8.462896484375,-1.2430535554885864,-1.7802085876464844,3.7180941104888916
1717001416875562800,8.472562744140625,-1.865138292312622,-1.3994131088256836,2.799264907836914
1717001416885229000,8.48222900390625,-2.5115818977355957,-1.0611810684204102,1.9938924312591553
1717001416894895400,8.491895263671875,-3.7158799171447754,-1.1905708312988281,1.4451158046722412
1717001416904561700,8.501561767578124,-4.928057670593262,-2.1925048828125,1.7299444675445557
1717001416914228000,8.51122802734375,-3.74697208404541,-2.7462053298950195,2.573275089263916
1717001416923894300,8.520894287109375,-2.4038047790527344,-2.4260101318359375,3.1152889728546143
1717001416933560600,8.530560546875,-2.5111114978790283,-1.930619239807129,3.517333984375
1717001416943227000,8.540226806640625,-3.8904848098754883,-1.5153560638427734,3.8166236877441406
1717001416952893200,8.54989306640625,-4.7418599128723145,-1.3197479248046875,3.665151834487915
1717001416962559500,8.5595595703125,-4.340017795562744,-1.5550003051757812,2.6310267448425293
1717001416972225800,8.569225830078125,-3.903714179992676,-2.2737016677856445,1.0532456636428833
1717001416981892000,8.57889208984375,-4.094336986541748,-3.061213493347168,-0.7575441598892212
1717001416991558400,8.588558349609375,-3.109779119491577,-3.879971504211426,-2.4986495971679688
1717001417001224700,8.598224609375,-0.801375687122345,-4.957894325256348,-3.416440963745117
1717001417010891000,8.60789111328125,1.7472710609436035,-5.8902482986450195,-3.6175618171691895
1717001417020557300,8.617557373046875,3.124234676361084,-6.612001419067383,-3.7119202613830566
1717001417030223600,8.6272236328125,3.206146717071533,-7.0307722091674805,-4.136638164520264
1717001417039890000,8.636889892578125,1.9612936973571777,-7.084562301635742,-4.678144454956055
1717001417049556200,8.64655615234375,-1.6877691745758057,-6.930105209350586,-5.312261581420898
1717001417059222500,8.656222412109376,-6.12097692489624,-6.427817344665527,-4.515552520751953
1717001417068888800,8.665888916015625,-6.196777820587158,-5.454283714294434,-3.7359023094177246
1717001417078555100,8.67555517578125,-2.875722885131836,-4.139313697814941,-3.8388071060180664
1717001417088221400,8.685221435546875,0.13908672332763672,-3.1419429779052734,-3.9591994285583496
1717001417097887700,8.6948876953125,2.301301956176758,-2.21689510345459,-3.9640722274780273
1717001417107554000,8.704553955078126,3.4246745109558105,-1.3473987579345703,-4.0012922286987305
1717001417117220400,8.714220458984375,3.8294358253479004,-0.5083122253417969,-4.22845983505249
1717001417126886700,8.72388671875,3.8513922691345215,0.36290836334228516,-4.367985248565674
1717001417136553000,8.733552978515625,3.506807327270508,1.1561756134033203,-4.364463806152344
1717001417146219300,8.74321923828125,2.789717435836792,1.8722715377807617,-4.049522399902344
1717001417155885600,8.752885498046876,1.774854302406311,2.582418441772461,-3.5702247619628906
1717001417165551900,8.7625517578125,1.2060983180999756,3.279869556427002,-3.266141176223755
1717001417175218200,8.77221826171875,1.1901867389678955,3.8976988792419434,-3.2130637168884277
1717001417184884500,8.781884521484375,1.6437451839447021,4.349084377288818,-3.229621171951294
1717001417194550800,8.79155078125,2.039269208908081,4.643312931060791,-3.322735071182251
1717001417204217000,8.801217041015626,2.1974897384643555,4.830422878265381,-3.5193285942077637
1717001417213883400,8.81088330078125,2.2405498027801514,4.9941534996032715,-3.8730885982513428
1717001417223549700,8.8205498046875,2.3262252807617188,5.244293212890625,-4.389848709106445
1717001417233216000,8.830216064453126,2.396967649459839,5.467350959777832,-4.9043169021606445
1717001417242882300,8.83988232421875,2.315901517868042,5.57981014251709,-5.354288101196289
1717001417252548600,8.849548583984374,2.277956485748291,5.5980224609375,-5.698582649230957
1717001417262214700,8.859214599609375,2.308457136154175,5.537559509277344,-5.76649284362793
1717001417271881000,8.868880859375,2.341505527496338,5.415195465087891,-5.45237398147583
1717001417281547300,8.87854736328125,2.6722874641418457,5.266667366027832,-4.814204216003418
1717001417291213600,8.888213623046875,2.9686508178710938,5.174400806427002,-4.111388683319092
1717001417300880000,8.8978798828125,3.3394250869750977,5.112192630767822,-3.626509666442871
1717001417310546200,8.907546142578125,3.808823585510254,4.789515018463135,-3.2641873359680176
1717001417320212500,8.91721240234375,3.423069953918457,3.7968978881835938,-2.717735767364502
1717001417329878800,8.926878662109376,1.1733613014221191,1.9157605171203613,-2.510617256164551
1717001417339545000,8.936545166015625,-3.5776569843292236,-0.6988344192504883,-0.6295421123504639
1717001417349211400,8.94621142578125,-10.509893417358398,-4.877765655517578,2.883815050125122
1717001417358877700,8.955877685546875,-18.029800415039062,-10.924217224121094,8.176651000976562
1717001417368544000,8.9655439453125,-13.629392623901367,-14.596538543701172,11.57214641571045
1717001417378210300,8.975210205078126,-5.761566638946533,-14.16557502746582,12.120084762573242
1717001417387876600,8.984876708984375,-1.956758737564087,-11.222209930419922,10.733306884765625
1717001417397543000,8.99454296875,-1.1355249881744385,-6.814558982849121,8.476129531860352
1717001417407209200,9.004209228515625,-2.001293659210205,-2.404219627380371,5.877802848815918
1717001417416875500,9.01387548828125,-1.4468308687210083,1.2647390365600586,3.9067323207855225
1717001417426541800,9.023541748046876,-0.13110530376434326,4.008244514465332,2.213207721710205
1717001417436208000,9.0332080078125,0.4784044027328491,5.66306209564209,0.8840546607971191
1717001417445874400,9.04287451171875,1.673472285270691,6.330573081970215,-0.44298481941223145
1717001417455540700,9.052540771484376,4.596355438232422,6.178940296173096,-2.0842628479003906
1717001417465207000,9.06220703125,7.395134449005127,4.545605659484863,-3.7072198390960693
1717001417474873300,9.071873291015624,6.954245567321777,1.7999629974365234,-4.085587978363037
1717001417484539600,9.08153955078125,5.708265781402588,-0.3725862503051758,-3.8718371391296387
1717001417494206000,9.0912060546875,3.860607624053955,-2.267031669616699,-3.7081422805786133
1717001417503872300,9.100872314453126,-1.7497379779815674,-5.416418075561523,-3.5679163932800293
1717001417513538600,9.11053857421875,-12.243171691894531,-9.67248249053955,-2.5465455055236816
1717001417523204900,9.120204833984374,-13.215463638305664,-11.221424102783203,-2.4718151092529297
1717001417532871200,9.12987109375,-5.069756984710693,-8.591530799865723,-3.9507150650024414
1717001417542537500,9.139537353515625,2.7369017601013184,-4.3590497970581055,-5.229909896850586
1717001417552203800,9.149203857421876,4.433957099914551,-0.09706592559814453,-6.815195083618164
1717001417561870000,9.1588701171875,2.0628502368927,3.19014835357666,-8.389460563659668
1717001417571536400,9.168536376953124,-1.1253198385238647,5.188919544219971,-9.152791976928711
1717001417581202700,9.17820263671875,-1.3302276134490967,5.219057559967041,-8.531638145446777
1717001417590869000,9.187868896484375,0.8799793720245361,2.89180850982666,-7.163679599761963
1717001417600535000,9.19753515625,2.762587308883667,0.45887184143066406,-5.978750228881836
1717001417610201300,9.207201416015625,3.678262710571289,-1.1121034622192383,-5.505308151245117
1717001417619867600,9.21686767578125,3.7206218242645264,-2.339810371398926,-4.942964553833008
1717001417629534000,9.226533935546875,3.29280948638916,-3.0301103591918945,-4.40139102935791
1717001417639200300,9.2362001953125,2.444796085357666,-3.0212182998657227,-3.535240650177002
1717001417648866600,9.245866455078126,0.24476894736289978,-2.6021299362182617,-2.191002368927002
1717001417658532900,9.255532958984375,-3.0521578788757324,-2.0164661407470703,-1.0038821697235107
1717001417668199200,9.26519921875,-3.140918731689453,-1.4953861236572266,-0.5381631851196289
1717001417677865500,9.274865478515625,-0.7008307576179504,-1.218428611755371,-0.946254312992096
1717001417687531800,9.28453173828125,2.56343150138855,-0.35880184173583984,-0.5255492925643921
1717001417697198000,9.294197998046876,5.161647319793701,0.05699348449707031,0.7059100866317749
1717001417706864400,9.303864501953125,6.026088237762451,0.5382080078125,1.540553331375122
1717001417716530700,9.31353076171875,5.985136032104492,0.8939447402954102,1.3969875574111938
1717001417726197000,9.323197021484376,5.1785993576049805,0.7637577056884766,1.6226837635040283
1717001417735863300,9.33286328125,2.9376542568206787,0.49032115936279297,1.7319477796554565
1717001417745529600,9.342529541015624,0.3544626832008362,0.5636482238769531,2.082548141479492
1717001417755196000,9.35219580078125,-2.4252071380615234,0.892582893371582,2.680194616317749
1717001417764862200,9.3618623046875,-2.5501351356506348,0.8090066909790039,2.791045665740967
1717001417774528500,9.371528564453126,-1.3049871921539307,0.5989170074462891,2.2014219760894775
1717001417784194800,9.38119482421875,-0.4411845803260803,0.6517248153686523,1.6484360694885254
1717001417793861000,9.390861083984374,-0.11962449550628662,0.72021484375,1.2867035865783691
1717001417803527400,9.40052734375,-0.13467442989349365,0.5652980804443359,1.0760537385940552
1717001417813193700,9.41019384765625,-0.14969146251678467,0.4170799255371094,0.9055029153823853
1717001417822860000,9.419860107421876,-0.30948126316070557,0.41945552825927734,0.6782134175300598
1717001417832526300,9.4295263671875,-0.5180171132087708,0.6155815124511719,0.5899076461791992
1717001417842192600,9.439192626953124,-0.8679154515266418,0.66571044921875,0.6126726269721985
1717001417851858700,9.448858642578125,-1.1400299072265625,0.7440834045410156,0.7493113279342651
1717001417861525000,9.45852490234375,-1.3120063543319702,0.6784229278564453,0.9254994988441467
1717001417871191300,9.46819140625,-1.4464043378829956,0.49519920349121094,1.1328505277633667
1717001417880857600,9.477857666015625,-1.6453508138656616,0.15371322631835938,1.4109220504760742
1717001417890524000,9.48752392578125,-1.8285728693008423,-0.2408618927001953,1.5365005731582642
1717001417900190200,9.497190185546875,-2.0693466663360596,-0.5880813598632812,1.5101724863052368
1717001417909856500,9.5068564453125,-2.248387336730957,-0.6584749221801758,1.2649654150009155
1717001417919522800,9.516522705078126,-2.4660072326660156,-0.2964963912963867,0.8598949909210205
1717001417929189000,9.526189208984375,-2.714169979095459,0.5105056762695312,0.3964364528656006
1717001417938855400,9.53585546875,-2.886281967163086,1.3641023635864258,-0.019466083496809006
1717001417948521700,9.545521728515626,-2.951782703399658,1.827685832977295,-0.25342857837677
1717001417958188000,9.55518798828125,-2.739386558532715,1.983288288116455,-0.22677186131477356
1717001417967854300,9.564854248046874,-2.154391288757324,1.7096867561340332,0.19495150446891785
1717001417977520600,9.574520751953125,-1.1194968223571777,1.0864601135253906,0.9570084810256958
1717001417987187000,9.58418701171875,0.21230971813201904,0.2761573791503906,1.7467613220214844
1717001417996853200,9.593853271484376,1.3878892660140991,-0.5219087600708008,2.477510929107666
1717001418006519600,9.60351953125,1.939496397972107,-1.2579622268676758,3.1109228134155273
1717001418016185900,9.613185791015624,1.5238174200057983,-1.816141128540039,3.59159517288208
1717001418025852200,9.62285205078125,0.3475548028945923,-2.1111059188842773,3.7480289936065674
1717001418035518500,9.6325185546875,-0.7449839115142822,-1.7729864120483398,3.5218007564544678
1717001418045184800,9.642184814453126,-1.5157350301742554,-1.0839271545410156,2.8622512817382812
1717001418054851000,9.65185107421875,-2.0948259830474854,-0.9008874893188477,2.5538198947906494
1717001418064517000,9.66151708984375,-2.8679914474487305,-0.9511289596557617,2.3337292671203613
1717001418074183400,9.671183349609375,-3.54587984085083,-1.2332897186279297,2.1908655166625977
1717001418083849700,9.680849609375,-3.654670476913452,-1.8889026641845703,2.2872724533081055
1717001418093516000,9.69051611328125,-3.482489585876465,-2.799820899963379,2.5754153728485107
1717001418103182300,9.700182373046875,-3.9993033409118652,-3.737241744995117,3.0191073417663574
1717001418112848600,9.7098486328125,-3.9340243339538574,-4.1808366775512695,3.3946404457092285
1717001418122515000,9.719514892578125,-2.9527647495269775,-3.633146286010742,3.357482433319092
1717001418132181200,9.72918115234375,-2.9308671951293945,-2.28341007232666,2.788398504257202
1717001418141847600,9.73884765625,-3.287475824356079,-0.8660573959350586,2.1445040702819824
1717001418151513900,9.748513916015625,-3.0805625915527344,0.402252197265625,1.676914930343628
1717001418161180200,9.75818017578125,-2.6026034355163574,1.2856369018554688,1.274578332901001
1717001418170846500,9.767846435546875,-2.1727242469787598,1.6822395324707031,0.9225142598152161
1717001418180512800,9.7775126953125,-1.7895221710205078,1.085714340209961,0.6101948618888855
1717001418190179000,9.787178955078126,-1.8570797443389893,-0.4362144470214844,0.2796395421028137
1717001418199845400,9.796845458984375,-2.1787796020507812,-2.165769577026367,0.1735822558403015
1717001418209511700,9.80651171875,-2.607553720474243,-4.071693420410156,0.2994083762168884
1717001418219178000,9.816177978515626,-2.667884588241577,-5.831274032592773,0.3654617667198181
1717001418228844300,9.82584423828125,-1.717469334602356,-7.1506853103637695,0.24314701557159424
1717001418238510600,9.835510498046874,-1.3233152627944946,-7.850539207458496,-0.08943939208984375
1717001418248176600,9.8451767578125,-1.7061426639556885,-7.5484161376953125,-0.7970646023750305
1717001418257843000,9.854843017578125,-2.5086660385131836,-6.086010932922363,-1.6804850101470947
1717001418267509200,9.86450927734375,-3.1056056022644043,-4.47659969329834,-2.228705406188965
1717001418277175600,9.874175537109375,-3.0328781604766846,-3.3017892837524414,-2.6499228477478027
1717001418286841900,9.883841796875,-2.1505420207977295,-2.585641860961914,-2.915221929550171
1717001418296508200,9.893508056640625,-1.1149239540100098,-2.0960817337036133,-3.1471645832061768
1717001418306174500,9.903174560546875,-0.2756635546684265,-1.8561897277832031,-3.567824602127075
1717001418315840800,9.9128408203125,0.5511341094970703,-1.6992740631103516,-4.042011737823486
1717001418325507000,9.922507080078125,1.197321891784668,-1.3581619262695312,-4.459510326385498
1717001418335173400,9.93217333984375,1.5360382795333862,-1.051192283630371,-4.648492813110352
1717001418344839700,9.941839599609375,1.6774601936340332,-0.7674713134765625,-4.594046592712402
1717001418354506000,9.951506103515625,1.5423710346221924,-0.4561338424682617,-4.436771869659424
1717001418364172300,9.96117236328125,1.406931757926941,-0.10036659240722656,-4.061004161834717
1717001418373838600,9.970838623046875,1.3968186378479004,0.2898368835449219,-3.462477684020996
1717001418383505000,9.9805048828125,1.595635175704956,0.7205867767333984,-2.7012887001037598
1717001418393171200,9.990171142578125,1.7959903478622437,1.1638269424438477,-1.8922306299209595
1717001418402837500,9.99983740234375,1.8978872299194336,1.6249933242797852,-1.1945831775665283
1717001418412503800,10.00950390625,2.093555450439453,2.093639850616455,-0.6765987873077393
1717001418422170000,10.019170166015625,2.2927322387695312,2.628267288208008,-0.7110030651092529
1717001418431836400,10.02883642578125,2.560086727142334,3.3353700637817383,-1.3274660110473633
1717001418441502700,10.038502685546876,2.802666664123535,3.9884800910949707,-2.2933459281921387
1717001418451168800,10.048168701171875,3.026279926300049,4.518331527709961,-3.240950584411621
1717001418460835000,10.0578349609375,3.3367981910705566,4.946971893310547,-4.000147342681885
1717001418470501400,10.06750146484375,3.389843225479126,5.277307510375977,-4.551933288574219
1717001418480167700,10.077167724609374,3.3001646995544434,5.357494831085205,-4.773979663848877
1717001418489834000,10.086833984375,3.2768380641937256,5.419737339019775,-4.697455406188965
1717001418499500300,10.096500244140625,3.1280765533447266,5.50678825378418,-4.476450443267822
1717001418509166600,10.10616650390625,2.83132004737854,5.654170036315918,-4.153097152709961
1717001418518833000,10.1158330078125,2.624436378479004,5.871276378631592,-3.5611910820007324
1717001418528499200,10.125499267578125,2.485273838043213,6.12024450302124,-2.840320587158203
1717001418538165500,10.13516552734375,2.1637659072875977,6.303954601287842,-2.157074451446533
1717001418547831800,10.144831787109375,1.4050586223602295,6.490746974945068,-1.6912078857421875
1717001418557498000,10.154498046875,-0.47241735458374023,6.13134765625,-0.502693772315979
1717001418567164400,10.164164306640625,-4.299633502960205,4.784169673919678,1.1543028354644775
1717001418576830700,10.173830810546875,-9.2769136428833,1.7560601234436035,3.0042035579681396
1717001418586497000,10.1834970703125,-13.133208274841309,-2.8230676651000977,5.531675338745117
1717001418596163000,10.1931630859375,-9.258973121643066,-7.886064529418945,8.002023696899414
1717001418605829400,10.202829345703124,-2.5935425758361816,-12.484125137329102,10.044845581054688
1717001418615495700,10.21249560546875,2.589498281478882,-14.176290512084961,10.436958312988281
1717001418625162000,10.222161865234375,3.5063247680664062,-12.465559959411621,9.068673133850098
1717001418634828300,10.231828369140626,-0.02817821502685547,-9.025626182556152,6.107460021972656
1717001418644494600,10.24149462890625,-3.5489087104797363,-4.521796226501465,3.5697999000549316
1717001418654161000,10.251160888671874,-4.122899055480957,-0.44232654571533203,1.6526694297790527
1717001418663827200,10.2608271484375,-3.34625506401062,2.0832338333129883,0.18059372901916504
1717001418673493500,10.270493408203125,-1.7274260520935059,3.6698880195617676,-0.5314934253692627
1717001418683159800,10.280159912109376,0.8249393701553345,4.7066569328308105,-0.6661136150360107
1717001418692826000,10.289826171875,4.606995582580566,5.155603408813477,-0.5069296360015869
1717001418702492400,10.299492431640624,10.013300895690918,4.764613628387451,-0.950786828994751
1717001418712158700,10.30915869140625,10.12242317199707,3.041179656982422,-1.7915027141571045
1717001418721825000,10.318824951171875,7.180144309997559,0.806218147277832,-1.812779426574707
1717001418731491300,10.3284912109375,2.7878055572509766,-1.5638399124145508,-1.8060330152511597
1717001418741157400,10.338157470703125,0.39222967624664307,-3.942233085632324,-0.9250342845916748
1717001418750823700,10.34782373046875,-1.603981614112854,-6.36204719543457,0.16503691673278809
1717001418760490000,10.357489990234376,-6.65911865234375,-8.966333389282227,0.5054531097412109
1717001418770156300,10.36715625,-5.90505838394165,-9.239547729492188,-1.3582031726837158
1717001418779822600,10.376822509765624,-0.6265813112258911,-7.200359344482422,-4.324934005737305
1717001418789489000,10.386489013671875,-0.9469490051269531,-4.45711612701416,-7.220135688781738
1717001418799155200,10.3961552734375,-6.930393218994141,-0.2850828170776367,-9.985978126525879
1717001418808821500,10.405821533203126,-4.432659149169922,3.200839042663574,-10.876705169677734
1717001418818487800,10.41548779296875,1.3767576217651367,4.15912389755249,-8.429689407348633
1717001418828154000,10.425154052734374,5.255366802215576,2.8413987159729004,-5.54509973526001
1717001418837820400,10.4348203125,7.482110977172852,1.225947380065918,-3.910814046859741
1717001418847486700,10.44448681640625,7.291374206542969,0.5476102828979492,-3.3751931190490723
1717001418857153000,10.454153076171876,6.223472595214844,0.2620582580566406,-3.303842544555664
1717001418866819300,10.4638193359375,5.052974700927734,-0.9991302490234375,-2.6582846641540527
1717001418876485600,10.473485595703124,-0.9613890647888184,-2.6089649200439453,-0.21106886863708496
1717001418886152000,10.48315185546875,-6.333081245422363,-2.671933174133301,3.2623116970062256
1717001418895818200,10.492818359375,-0.721737265586853,-1.5515413284301758,3.645148992538452
1717001418905484300,10.502484375,3.8390233516693115,-0.7703256607055664,3.0292749404907227
1717001418915150600,10.512150634765625,4.513180255889893,-0.2503490447998047,2.972822666168213
1717001418924817000,10.52181689453125,2.765275001525879,0.2724456787109375,3.0084352493286133
1717001418934483200,10.531483154296875,1.7091562747955322,0.3486013412475586,2.738992691040039
1717001418944149500,10.5411494140625,2.041125774383545,0.18842220306396484,2.05147123336792
1717001418953815800,10.55081591796875,2.187892436981201,0.24175357818603516,1.126128911972046
1717001418963482000,10.560482177734375,1.5481666326522827,0.47646045684814453,0.08919346332550049
1717001418973148400,10.5701484375,0.44888120889663696,0.5102653503417969,-0.823444128036499
1717001418982814700,10.579814697265626,-0.40754568576812744,0.5785408020019531,-1.65150785446167
1717001418992481000,10.58948095703125,-0.5655578970909119,0.39321041107177734,-2.0975964069366455
1717001419002147300,10.599147216796876,-0.4397774934768677,0.2208719253540039,-2.370321273803711
1717001419011813600,10.608813720703125,-0.27577054500579834,0.25583362579345703,-2.5696959495544434
1717001419021479700,10.618479736328124,-0.05637595057487488,0.1161031723022461,-2.3582730293273926
1717001419031146000,10.62814599609375,0.040271878242492676,0.13211631774902344,-2.372342586517334
1717001419040812300,10.637812255859375,0.01669730246067047,0.3011178970336914,-2.302212953567505
1717001419050478600,10.647478515625,0.13429297506809235,0.39780235290527344,-2.0098304748535156
1717001419060145000,10.657144775390625,0.34160393476486206,0.6201591491699219,-1.6323612928390503
1717001419069811200,10.666811279296875,0.5209218263626099,0.7789926528930664,-1.2304326295852661
1717001419079477500,10.6764775390625,0.6542371511459351,0.9102144241333008,-0.7507208585739136
1717001419089143800,10.686143798828125,0.8957258462905884,0.8586568832397461,-0.3359261155128479
1717001419098810000,10.69581005859375,1.2020773887634277,0.7727947235107422,0.05845603346824646
1717001419108476400,10.705476318359375,1.3341103792190552,0.8292922973632812,0.3359108865261078
1717001419118142700,10.715142822265625,1.2253248691558838,0.9271345138549805,0.6402347087860107
1717001419127809000,10.72480908203125,0.9105057716369629,0.9795827865600586,1.0262596607208252
1717001419137475000,10.73447509765625,0.3951202630996704,1.1553382873535156,1.5446553230285645
1717001419147141400,10.744141357421874,-0.16348448395729065,1.2620000839233398,2.093162775039673
1717001419156807700,10.7538076171875,-0.7390210032463074,1.2680377960205078,2.5794854164123535
1717001419166474000,10.763473876953125,-1.3382331132888794,1.1737709045410156,3.133909225463867
1717001419176140300,10.773140380859376,-4.563513278961182,1.039372444152832,3.749051094055176
1717001419185806600,10.782806640625,-8.920767784118652,0.3502826690673828,4.336255073547363
1717001419195473000,10.792472900390624,-5.96658182144165,-0.4403810501098633,4.4820637702941895
1717001419205139200,10.80213916015625,-1.657728672027588,-1.1261024475097656,4.248497486114502
1717001419214805500,10.811805419921875,0.32487982511520386,-1.8173103332519531,4.155057907104492
1717001419224471800,10.821471923828126,0.7832436561584473,-2.3380184173583984,4.191713809967041
1717001419234138000,10.83113818359375,0.9274603724479675,-2.501422882080078,4.141868591308594
1717001419243804400,10.840804443359374,0.8259763121604919,-2.4708261489868164,3.980886936187744
1717001419253470700,10.850470703125,0.15023404359817505,-2.066788673400879,3.832383871078491
1717001419263137000,10.860136962890625,-0.8968873620033264,-1.8192033767700195,3.7839956283569336
1717001419272803000,10.869802978515626,-1.6897741556167603,-1.9431934356689453,3.787454843521118
1717001419282469400,10.879469482421875,-1.6396739482879639,-2.455221176147461,3.8996126651763916
1717001419292135700,10.8891357421875,-0.8222087025642395,-2.675985336303711,3.809054136276245
1717001419301802000,10.898802001953126,0.023348093032836914,-2.409359931945801,3.647855043411255
1717001419311468300,10.90846826171875,0.23013365268707275,-1.6556472778320312,3.5443520545959473
1717001419321134600,10.918134521484374,-0.19605004787445068,-0.6797647476196289,3.5485401153564453
1717001419330801000,10.92780078125,-0.6503150463104248,0.17327404022216797,3.648643970489502
1717001419340467200,10.93746728515625,-1.0148179531097412,0.8032217025756836,3.8294472694396973
1717001419350133500,10.947133544921876,-1.6396112442016602,1.2268428802490234,4.1024603843688965
1717001419359799800,10.9567998046875,-2.4950661659240723,1.3784818649291992,4.20484733581543
1717001419369466000,10.966466064453124,-1.8444454669952393,0.9165639877319336,3.78863787651062
1717001419379132200,10.976132080078125,-0.545742392539978,0.23436927795410156,2.5801005363464355
1717001419388798500,10.985798583984375,0.27178943157196045,-0.5548057556152344,1.45039701461792
1717001419398464800,10.99546484375,0.5430766940116882,-1.6179437637329102,0.7756178379058838
1717001419408131000,11.005131103515625,0.8341411352157593,-2.6010684967041016,0.3096548318862915
1717001419417797400,11.01479736328125,1.7278934717178345,-3.311680793762207,-0.10030460357666016
1717001419427463700,11.024463623046875,3.0607941150665283,-3.543513298034668,-0.5713735818862915
1717001419437130000,11.0341298828125,3.8008904457092285,-3.404107093811035,-1.053786039352417
1717001419446796300,11.04379638671875,3.64666748046875,-3.5294189453125,-1.3514883518218994
1717001419456462600,11.053462646484375,2.8482916355133057,-3.8450851440429688,-1.6302531957626343
1717001419466129000,11.06312890625,1.202592134475708,-4.404302597045898,-1.7738852500915527
1717001419475795200,11.072795166015625,-0.8369227647781372,-5.120347023010254,-1.6933588981628418
1717001419485461500,11.08246142578125,-2.079343318939209,-5.507535934448242,-1.6291892528533936
1717001419495127800,11.0921279296875,-1.7730714082717896,-5.019194602966309,-1.960098385810852
1717001419504794000,11.101794189453125,-0.46866607666015625,-3.953367233276367,-2.392165422439575
1717001419514460200,11.111460205078124,1.2025940418243408,-2.767392158508301,-2.6606407165527344
1717001419524126500,11.12112646484375,2.26499080657959,-1.7658634185791016,-2.770272970199585
1717001419533792800,11.130792724609375,2.7416305541992188,-0.9527425765991211,-2.8425028324127197
1717001419543459000,11.140458984375,3.014230728149414,-0.3681325912475586,-2.888044595718384
1717001419553125400,11.15012548828125,3.095104694366455,0.12478160858154297,-3.063049793243408
1717001419562791700,11.159791748046874,2.9937987327575684,0.5548610687255859,-3.1249234676361084
1717001419572458000,11.1694580078125,2.8724355697631836,0.9292383193969727,-3.140174150466919
1717001419582124300,11.179124267578125,2.7371578216552734,1.3411521911621094,-3.217790365219116
1717001419591790600,11.18879052734375,2.451019287109375,1.7786188125610352,-3.2272181510925293
1717001419601457000,11.198456787109375,2.238516092300415,2.224679470062256,-3.1722371578216553
1717001419611123000,11.208123046875,2.062751293182373,2.5046677589416504,-3.102626323699951
1717001419620789200,11.217789306640626,1.9778730869293213,2.728513717651367,-2.9962849617004395
1717001419630455600,11.22745556640625,2.079700231552124,2.910856246948242,-2.955446720123291
1717001419640121900,11.237121826171874,2.243640899658203,3.0955100059509277,-3.064911365509033
1717001419649788200,11.2467880859375,2.353191375732422,3.3336429595947266,-3.3387749195098877
1717001419659454500,11.256454345703125,2.397653579711914,3.7099990844726562,-3.7995035648345947
1717001419669120800,11.266120849609376,2.4094507694244385,4.01789665222168,-4.260213851928711
1717001419678787000,11.275787109375,2.5375211238861084,4.24194860458374,-4.639349937438965
1717001419688453400,11.285453369140624,2.7423977851867676,4.389815807342529,-4.830014705657959
1717001419698119700,11.29511962890625,2.8506052494049072,4.518527507781982,-4.870988368988037
1717001419707786000,11.304785888671875,2.8786497116088867,4.531357765197754,-4.80255126953125
1717001419717452300,11.314452392578126,2.782837390899658,4.414721488952637,-4.505821228027344
1717001419727118300,11.324118408203125,2.4266109466552734,4.255073547363281,-4.203243255615234
1717001419736784600,11.33378466796875,2.3610475063323975,3.9054479598999023,-3.6302592754364014
1717001419746451000,11.343450927734375,2.0870778560638428,3.4904885292053223,-2.9580109119415283
1717001419756117200,11.3531171875,0.9038126468658447,2.5630297660827637,-1.3168728351593018
1717001419765783600,11.362783447265626,-1.535172939300537,1.0642566680908203,0.6353449821472168
1717001419775449900,11.372449951171875,-8.362040519714355,-1.6607208251953125,2.968510866165161
1717001419785116200,11.3821162109375,-16.13086700439453,-6.520651817321777,7.546069145202637
1717001419794782500,11.391782470703125,-8.584243774414062,-9.798022270202637,9.293235778808594
1717001419804448800,11.40144873046875,-1.4547247886657715,-11.375194549560547,9.959718704223633
1717001419814114800,11.41111474609375,2.566596508026123,-9.763455390930176,8.9308443069458
1717001419823781000,11.420781005859375,2.59687876701355,-5.473970413208008,5.689924240112305
1717001419833447400,11.430447509765624,1.535892128944397,-1.43896484375,2.9199042320251465
1717001419843113700,11.44011376953125,0.125838041305542,1.5952019691467285,0.9852690696716309
1717001419852780000,11.449780029296875,-0.2317333221435547,3.8190789222717285,-0.08260989189147949
1717001419862446300,11.4594462890625,-0.08494853973388672,4.7225799560546875,-0.19497966766357422
1717001419872112600,11.469112548828125,-0.5077927112579346,4.461935997009277,0.4355907440185547
1717001419881779000,11.478779052734374,1.7906382083892822,2.825153350830078,1.3105781078338623
1717001419891445200,11.4884453125,6.770845413208008,0.45514678955078125,1.0909247398376465
1717001419901111600,11.498111572265625,8.108672142028809,-1.9392223358154297,0.4880847930908203
1717001419910777900,11.50777783203125,5.211057186126709,-3.920673370361328,-0.21555113792419434
1717001419920444000,11.51744384765625,2.582052707672119,-5.459524154663086,-0.022481918334960938
1717001419930110200,11.527110107421874,0.2695220708847046,-6.124016761779785,0.9008111953735352
1717001419939776500,11.536776611328126,-2.764334201812744,-5.762194633483887,1.5950095653533936
1717001419949442800,11.54644287109375,-4.960525035858154,-4.786347389221191,0.7844758033752441
1717001419959109000,11.556109130859374,-2.4506916999816895,-2.5934276580810547,-1.9054945707321167
1717001419968775400,11.565775390625,-0.7624528408050537,-0.10277843475341797,-4.210844039916992
1717001419978441700,11.575441650390625,-2.0273284912109375,1.7866601943969727,-5.706657886505127
1717001419988108000,11.58510791015625,-2.509349822998047,2.9744348526000977,-6.650115013122559
1717001419997774300,11.5947744140625,-0.8811067342758179,3.1429286003112793,-6.681606292724609
1717001420007440400,11.6044404296875,1.9637324810028076,2.4064927101135254,-5.8369855880737305
1717001420017106700,11.614106689453125,4.990796089172363,1.0899181365966797,-4.441149711608887
1717001420026773000,11.62377294921875,6.151820659637451,-0.059821128845214844,-3.289405345916748
1717001420036439300,11.633439208984376,5.90640926361084,-0.6496162414550781,-3.044790744781494
1717001420046105600,11.643105712890625,4.875152111053467,-0.9709386825561523,-2.897102117538452
1717001420055772000,11.65277197265625,2.9529027938842773,-1.2510185241699219,-2.1241135597229004
1717001420065438200,11.662438232421875,0.15406548976898193,-1.6093730926513672,-0.9043452739715576
1717001420075104500,11.6721044921875,-0.9067250490188599,-1.4570884704589844,0.2949787378311157
1717001420084770800,11.681770751953126,0.28105008602142334,-0.8401432037353516,0.805972695350647
1717001420094437000,11.69143701171875,1.7662183046340942,-0.4787931442260742,0.9052084684371948
1717001420104103200,11.701103271484374,2.2355589866638184,-0.49041175842285156,0.9189828634262085
1717001420113769500,11.71076953125,1.8617041110992432,-0.6616382598876953,0.9708442687988281
1717001420123435800,11.720435791015625,1.74318265914917,-0.8238792419433594,0.8952178955078125
1717001420133102000,11.73010205078125,1.9869444370269775,-0.7501983642578125,0.6653783321380615
1717001420142768400,11.739768310546875,1.9625775814056396,-0.4599781036376953,0.31623172760009766
1717001420152434700,11.7494345703125,1.4426617622375488,0.007076263427734375,-0.07294094562530518
1717001420162101000,11.75910107421875,0.7442429065704346,0.40941333770751953,-0.34243398904800415
1717001420171767300,11.768767333984375,0.22981634736061096,0.8412227630615234,-0.6324734687805176
1717001420181433600,11.77843359375,-0.005030691623687744,1.239060401916504,-0.8363662958145142
1717001420191100000,11.788099853515625,0.08066961169242859,1.4771671295166016,-0.9874687790870667
1717001420200766200,11.79776611328125,0.08760929107666016,1.4892406463623047,-1.0776221752166748
1717001420210432300,11.807432373046876,-0.11230139434337616,1.2828073501586914,-1.151928186416626
1717001420220098600,11.8170986328125,-0.39844316244125366,1.2092838287353516,-1.30242919921875
1717001420229764900,11.826764892578124,-0.591413140296936,1.1727228164672852,-1.3702781200408936
1717001420239431200,11.83643115234375,-0.6536753177642822,1.1419038772583008,-1.3988304138183594
1717001420249097500,11.846097412109375,-0.5493642687797546,0.9066200256347656,-1.043442726135254
1717001420258763800,11.855763671875,-0.3685173988342285,0.8520479202270508,-0.8164883852005005
1717001420268430000,11.86543017578125,-0.07648026943206787,0.7893180847167969,-0.5475578308105469
1717001420278096400,11.875096435546874,0.15606838464736938,0.7472496032714844,-0.24576303362846375
1717001420287762400,11.884762451171875,0.24797898530960083,0.6851921081542969,0.13268780708312988
1717001420297428700,11.8944287109375,0.21750134229660034,0.6531562805175781,0.5176259279251099
1717001420307095000,11.904094970703126,0.11251026391983032,0.5455598831176758,0.9642583727836609
1717001420316761300,11.91376123046875,-0.19953644275665283,0.5625438690185547,1.407206416130066
1717001420326427600,11.923427734375,-0.6453911066055298,0.7841405868530273,1.898407220840454
1717001420336094000,11.933093994140625,-1.0541558265686035,0.9918527603149414,2.3179290294647217
1717001420345760300,11.94276025390625,-1.2887146472930908,1.0927772521972656,2.666823387145996
1717001420355426600,11.952426513671876,-1.2997493743896484,0.945134162902832,2.9998786449432373
1717001420365092900,11.9620927734375,-1.5957589149475098,0.6110429763793945,3.3337531089782715
1717001420374759200,11.97175927734375,-3.484853744506836,-0.049492835998535156,3.7573258876800537
1717001420384425200,11.98142529296875,-4.857112884521484,-0.9327812194824219,4.372159481048584
1717001420394091500,11.991091552734375,-2.121281623840332,-1.4678401947021484,4.558310508728027
1717001420403757800,12.0007578125,0.39370954036712646,-1.6034460067749023,4.254034519195557
1717001420413424000,12.010424072265625,0.7186211347579956,-1.6884498596191406,4.127883434295654
1717001420423090400,12.02009033203125,-0.33431655168533325,-1.7146806716918945,4.238000869750977
1717001420432756700,12.0297568359375,-1.340155005455017,-1.7872333526611328,4.297577381134033
1717001420442423000,12.039423095703125,-1.3677796125411987,-1.8245058059692383,4.225865840911865
1717001420452089000,12.049089111328126,-0.8879202604293823,-1.769317626953125,3.912189483642578
1717001420461755400,12.05875537109375,-0.8325737118721008,-1.5625905990600586,3.5123722553253174
1717001420471421700,12.068421630859374,-1.0838950872421265,-1.2874069213867188,3.193358898162842
1717001420481088000,12.078087890625,-1.1172910928726196,-1.2680377960205078,3.254897117614746
1717001420490754300,12.08775439453125,-0.9828187227249146,-1.5246524810791016,3.6228525638580322
1717001420500420600,12.097420654296876,-0.956054151058197,-1.4665460586547852,3.9033570289611816
1717001420510087000,12.1070869140625,-2.1144442558288574,-1.2021560668945312,4.29745626449585
1717001420519753200,12.116753173828124,-4.397916793823242,-0.8876237869262695,4.904693126678467
1717001420529419500,12.12641943359375,-4.990242958068848,-0.5234212875366211,4.735843181610107
1717001420539085800,12.1360859375,-4.927221298217773,-0.26246070861816406,3.7505905628204346
1717001420548752000,12.145751953125,-4.4766926765441895,-0.5243730545043945,2.7592856884002686
1717001420558418200,12.155418212890625,-3.0336849689483643,-0.9570999145507812,1.5053510665893555
1717001420568084500,12.16508447265625,-1.7082191705703735,-1.5002002716064453,0.35969239473342896
1717001420577750800,12.174750732421876,-1.287170171737671,-2.246610641479492,-0.7264323234558105
1717001420587417000,12.1844169921875,-0.8434267044067383,-3.31744384765625,-1.8448514938354492
1717001420597083400,12.19408349609375,0.6512283086776733,-4.461569786071777,-2.564481735229492
1717001420606749700,12.203749755859375,2.610429048538208,-5.663187026977539,-2.815685272216797
1717001420616416000,12.213416015625,3.8368499279022217,-6.823159217834473,-3.0025668144226074
